timestamp,latitude,longitude,speed,accelerometerX,accelerometerY,accelerometerZ
1.0,40.4419836681713,-79.9388696160912,0.0,0.0092926025390625,-0.9893798828125,0.074951171875
1.0,40.4406447600646,-79.9600233080753,13.5,0.01898193359375,-0.893524169921875,0.0694732666015625
1.0,40.4289119644467,-79.9823497329652,5.15000009536743,0.0846099853515625,-0.875274658203125,0.201309204101562
2.0,40.4419917986174,-79.9388685264438,0.529999971389771,-0.0146484375,-1.00056457519531,0.107620239257812
2.0,40.4405522372867,-79.9601496958921,14.4899997711182,0.103286743164062,-1.05325317382812,0.153045654296875
2.0,40.4289154429365,-79.9824479688704,6.19000005722046,0.139694213867188,-0.572967529296875,0.1607666015625
3.0,40.4419917986174,-79.9388685264438,0.0,0.008209228515625,-0.979629516601562,0.116134643554688
3.0,40.4404544481896,-79.9602796413648,14.7700004577637,-0.154754638671875,-0.795303344726562,0.442001342773438
3.0,40.4288995173205,-79.9825363141298,6.51000022888184,0.07183837890625,-1.05821228027344,0.301239013671875
4.0,40.4419917986174,-79.9388685264438,0.0,0.0068817138671875,-0.997695922851562,0.1063232421875
4.0,40.4403535658653,-79.9604228747329,15.0500001907349,0.144699096679688,-0.843841552734375,0.131240844726562
4.0,40.4288989305873,-79.9826159422099,6.19000005722046,-0.036468505859375,-1.04563903808594,0.286026000976562
5.0,40.4419917986174,-79.9388685264438,0.0,0.0071563720703125,-1.00048828125,0.108673095703125
5.0,40.4402574713791,-79.9605593102979,15.0100002288818,-0.047821044921875,-0.958480834960938,0.103958129882812
5.0,40.4288994335015,-79.9827155192196,7.51999998092651,0.0571746826171875,-1.09922790527344,0.407791137695312
6.0,40.4419917986174,-79.9388685264438,0.0,0.0319671630859375,-1.04283142089844,0.111831665039062
6.0,40.4401664919307,-79.9606884834995,14.7799997329712,0.0947723388671875,-1.02305603027344,0.21539306640625
6.0,40.4288996011395,-79.9828043673932,7.51999998092651,-0.2293701171875,-0.67510986328125,0.258255004882812
7.0,40.4419917986174,-79.9388685264438,0.0,0.01141357421875,-0.9915771484375,0.110610961914062
7.0,40.4400742652336,-79.9608194275528,14.7799997329712,-0.189224243164062,-0.97064208984375,-0.0318756103515625
7.0,40.4288966255639,-79.9829388131201,8.40999984741211,-0.073516845703125,-0.9049072265625,0.256790161132812
8.0,40.4419917986174,-79.9388685264438,0.0,0.01824951171875,-0.992446899414062,0.141128540039062
8.0,40.4399899501374,-79.9609391386646,13.6999998092651,-0.020599365234375,-1.01113891601562,-0.015167236328125
8.0,40.4289013613392,-79.9830481131375,8.97000026702881,0.189178466796875,-0.900436401367188,0.209091186523438
9.0,40.4419917986174,-79.9388685264438,0.0,0.02301025390625,-0.961868286132812,0.135025024414062
9.0,40.4399210174533,-79.9610370097295,11.5100002288818,-0.0526580810546875,-1.02996826171875,-0.13995361328125
9.0,40.4289003136013,-79.9831673038006,8.65999984741211,-0.139175415039062,-0.827529907226562,0.270950317382812
10.0,40.4419917986174,-79.9388685264438,0.0,0.0272369384765625,-0.995620727539062,0.1256103515625
10.0,40.4398636329699,-79.9611184845853,9.78999996185303,-0.105316162109375,-1.02044677734375,-0.0681915283203125
10.0,40.428895661645,-79.9832763523608,8.97000026702881,0.0503997802734375,-0.972793579101562,0.21551513671875
11.0,40.4420004738871,-79.9388564565032,0.870000004768372,0.034149169921875,-0.978866577148438,0.08758544921875
11.0,40.4398150461205,-79.9611872206172,8.10999965667725,-0.0675201416015625,-1.05064392089844,0.01336669921875
11.0,40.4288699292023,-79.9834270589799,9.44999980926514,-0.630874633789062,-0.720748901367188,-0.22509765625
12.0,40.4420047905673,-79.9388378486782,1.24000000953674,-0.0050506591796875,-1.02847290039062,0.160964965820312
12.0,40.4397723864927,-79.9612472934907,6.21000003814697,-0.021514892578125,-0.992416381835938,0.108352661132812
12.0,40.428867791817,-79.983538454473,9.44999980926514,0.008453369140625,-0.919403076171875,0.17608642578125
13.0,40.4420130467419,-79.9388157204538,1.24000000953674,0.02362060546875,-0.949905395507812,0.174789428710938
13.0,40.4397326937092,-79.9613031884828,5.94999980926514,0.123001098632812,-1.04339599609375,0.131393432617188
13.0,40.4288697615642,-79.9836894963682,9.73999977111816,0.060791015625,-0.929000854492188,0.231658935546875
14.0,40.4420309421052,-79.938795100972,1.66999995708466,0.033111572265625,-0.965972900390625,0.172927856445312
14.0,40.4396922101389,-79.9613601970533,5.98999977111816,-0.070404052734375,-1.00093078613281,0.192916870117188
14.0,40.428869007193,-79.9837961141765,9.73999977111816,0.014739990234375,-0.826400756835938,0.2259521484375
15.0,40.4420552915339,-79.938773978576,2.19000005722046,0.0633087158203125,-1.01104736328125,0.1776123046875
15.0,40.439651568578,-79.9614174281046,6.96999979019165,-0.0317230224609375,-1.00900268554688,0.102890014648438
15.0,40.4288757127155,-79.9839275424182,9.43000030517578,0.29547119140625,-1.02693176269531,0.158660888671875
16.0,40.4420715943356,-79.9387412053346,3.26999998092651,0.0342864990234375,-0.986526489257812,0.0887908935546875
16.0,40.4396081889296,-79.9614785149042,6.96000003814697,-0.0250091552734375,-1.119384765625,0.197311401367188
16.0,40.4288702644784,-79.9840384349972,9.42000007629395,0.006072998046875,-1.04310607910156,0.062286376953125
17.0,40.4420930939172,-79.9387021456658,4.09999990463257,0.0584869384765625,-0.944854736328125,0.130767822265625
17.0,40.439569706707,-79.9615327051962,6.98000001907349,0.0675048828125,-1.07356262207031,0.192672729492188
17.0,40.4288646486033,-79.9841494113952,9.10999965667725,0.134048461914062,-0.845962524414062,0.24493408203125
18.0,40.4421184491743,-79.9386590626835,4.09999990463257,0.03643798828125,-0.98919677734375,0.191818237304688
18.0,40.4395221352729,-79.9615996948277,7.6399998664856,0.13824462890625,-0.98858642578125,0.21978759765625
18.0,40.4288701806594,-79.9842661713064,9.23999977111816,-0.029205322265625,-0.971664428710938,0.31060791015625
19.0,40.4421425052364,-79.9386112858354,4.44999980926514,0.0804595947265625,-0.991256713867188,0.0748138427734375
19.0,40.4394725473686,-79.9616695240329,8.52000045776367,-0.016876220703125,-0.9439697265625,0.103515625
19.0,40.4288701806594,-79.9843750522286,9.23999977111816,-0.115081787109375,-0.92523193359375,0.0438232421875
20.0,40.4421723448117,-79.9385596533119,5.1100001335144,-0.038818359375,-0.95458984375,0.177703857421875
20.0,40.4394185579621,-79.9617455513906,8.89999961853027,-0.100540161132812,-0.974105834960938,0.09326171875
20.0,40.428879736029,-79.9844937399775,9.26000022888184,0.14501953125,-1.04228210449219,0.198028564453125
21.0,40.4422160564367,-79.938520342186,5.01000022888184,0.016845703125,-0.988235473632812,0.0135650634765625
21.0,40.4393628287299,-79.9618176407938,8.3100004196167,0.0814208984375,-0.975296020507812,0.0572662353515625
21.0,40.4288785206531,-79.9846028723568,9.26000022888184,0.26483154296875,-1.26097106933594,0.121353149414062
22.0,40.4422358796377,-79.9384637643396,5.78000020980835,0.0234527587890625,-1.00382995605469,-0.0217437744140625
22.0,40.4392917935138,-79.9619037357207,10.1999998092651,0.0635528564453125,-1.0562744140625,0.164688110351562
22.0,40.4288509861011,-79.9846947380155,9.64000034332275,-0.133712768554688,-0.90972900390625,0.36798095703125
23.0,40.4422714608167,-79.9384047557413,6.03999996185303,0.0955047607421875,-1.03411865234375,0.140838623046875
23.0,40.4392242689302,-79.9619855757489,10.1999998092651,-0.0175018310546875,-1.11958312988281,0.175796508789062
23.0,40.4288471304257,-79.9848079775274,9.64999961853027,0.0169219970703125,-1.01081848144531,0.0181732177734375
24.0,40.4423016356681,-79.9383434002101,6.40999984741211,0.0308990478515625,-0.98565673828125,0.109130859375
24.0,40.4391461103617,-79.9620803042034,10.6800003051758,-0.0538177490234375,-0.994476318359375,0.169219970703125
24.0,40.428855931424,-79.9849192892015,9.72000026702881,-0.123748779296875,-1.06121826171875,-0.174774169921875
25.0,40.4423259850968,-79.9382825475931,6.19000005722046,0.015716552734375,-1.05422973632812,0.117523193359375
25.0,40.439073983373,-79.9621825709119,11.2600002288818,0.054290771484375,-0.95025634765625,0.225906372070312
25.0,40.4288557637859,-79.9850339536369,9.72000026702881,0.072174072265625,-0.938369750976562,0.329132080078125
26.0,40.4423610214521,-79.9382144865393,6.38000011444092,-0.07952880859375,-1.08699035644531,-0.003173828125
26.0,40.4390023768282,-79.9622821875657,11.6700000762939,-0.0078582763671875,-0.927642822265625,0.168624877929688
26.0,40.4288563924287,-79.9851592630893,9.53999996185303,-0.3369140625,-0.694091796875,0.221649169921875
27.0,40.4423875920851,-79.9381471798568,5.71999979019165,0.0297698974609375,-1.0313720703125,0.0330352783203125
27.0,40.4423875920851,-79.9381471798568,5.71999979019165,0.0297698974609375,-1.0313720703125,0.0330352783203125
27.0,40.4389254393127,-79.9623875586018,11.9300003051758,0.0754852294921875,-1.084228515625,0.181488037109375
27.0,40.4389254393127,-79.9623875586018,11.9300003051758,0.0754852294921875,-1.084228515625,0.181488037109375
27.0,40.428863894232,-79.9852757715434,9.93000030517578,0.149185180664062,-0.990447998046875,0.280181884765625
27.0,40.428863894232,-79.9852757715434,9.93000030517578,0.149185180664062,-0.990447998046875,0.280181884765625
28.0,40.4424101813142,-79.9380849861353,4.69000005722046,-0.022064208984375,-1.05172729492188,0.0598907470703125
28.0,40.4388476917054,-79.9624940391125,12.3500003814697,0.010528564453125,-0.949493408203125,0.16058349609375
28.0,40.4288641456891,-79.9853928667307,9.93000030517578,0.105545043945312,-0.993209838867188,0.380874633789062
29.0,40.4424687289078,-79.9380011671036,6.19999980926514,0.0059051513671875,-1.04246520996094,0.114212036132812
29.0,40.438769906645,-79.9625984431114,12.0299997329712,-0.05023193359375,-0.959716796875,0.1641845703125
29.0,40.4288491420824,-79.9855346047133,10.7200002670288,0.0322113037109375,-0.887725830078125,0.071014404296875
30.0,40.4424907314036,-79.9379392248392,5.59000015258789,-0.027496337890625,-1.05439758300781,0.00677490234375
30.0,40.4386965157737,-79.9626944198885,11.5600004196167,0.008941650390625,-1.0111083984375,0.156478881835938
30.0,40.4288469208781,-79.9856609199941,10.710000038147,0.002227783203125,-0.969329833984375,0.36798095703125
31.0,40.4425087105859,-79.9378835690021,4.84000015258789,-0.16827392578125,-0.994827270507812,-0.095428466796875
31.0,40.4386298397204,-79.9627816153747,10.9499998092651,0.0189208984375,-0.971771240234375,0.129623413085938
31.0,40.428822864816,-79.9857860618085,10.5900001525879,0.047454833984375,-0.848785400390625,0.248046875
32.0,40.4425142845516,-79.9378404022008,3.09999990463257,-0.104034423828125,-0.993789672851562,-0.0825347900390625
32.0,40.4385736712557,-79.9628548927073,9.75,-0.0682220458984375,-0.7650146484375,0.114212036132812
32.0,40.4288178356741,-79.9859109521657,10.6000003814697,0.07745361328125,-1.07809448242188,0.244216918945312
33.0,40.4425097164143,-79.9378116522729,2.00999999046326,-0.0216064453125,-0.986297607421875,0.073822021484375
33.0,40.4385105245425,-79.9629365568969,9.93000030517578,-0.03704833984375,-0.975448608398438,0.179733276367188
33.0,40.4288301570718,-79.9860591442138,10.8100004196167,-0.0321807861328125,-0.90643310546875,0.239761352539062
34.0,40.442486288995,-79.9378070422261,2.08999991416931,-0.030731201171875,-1.01083374023438,0.10699462890625
34.0,40.4384397351668,-79.9630281049239,10.25,-0.0429534912109375,-0.978286743164062,0.121414184570312
34.0,40.4288234515492,-79.9861732219159,10.5600004196167,0.018157958984375,-0.846038818359375,0.246368408203125
35.0,40.4424681002651,-79.9378010910749,1.89999997615814,-0.010406494140625,-0.995132446289062,0.111068725585938
35.0,40.4383921676528,-79.9630896213875,10.039999961853,-0.0459747314453125,-0.992904663085938,-0.0205078125
35.0,40.4288166202981,-79.9862958491593,10.4200000762939,-0.07427978515625,-0.867294311523438,0.34466552734375
36.0,40.442463951223,-79.9378031865507,0.629999995231628,0.004638671875,-0.993743896484375,0.1064453125
36.0,40.438327906204,-79.9631719228532,7.80999994277954,-0.0456085205078125,-1.02630615234375,-0.06378173828125
36.0,40.4288050532718,-79.9864398502558,10.6599998474121,0.084259033203125,-1.38533020019531,0.233963012695312
37.0,40.442461185195,-79.9378124904632,0.829999983310699,-0.015228271484375,-0.991912841796875,0.10302734375
37.0,40.4382845441687,-79.9632274467994,5.96000003814697,-0.0556182861328125,-1.01388549804688,0.009429931640625
37.0,40.428787199818,-79.9865691830218,10.7200002670288,0.0583038330078125,-1.03187561035156,0.25775146484375
38.0,40.4424588801716,-79.9378217105567,0.870000004768372,-0.0096435546875,-0.996505737304688,0.097991943359375
38.0,40.4382504258583,-79.9632711343988,4.21000003814697,-0.0734710693359375,-0.99127197265625,0.0337677001953125
38.0,40.428784517609,-79.9866955821216,10.710000038147,0.0448760986328125,-1.00517272949219,0.32025146484375
39.0,40.4424579162527,-79.937830343917,1.08000004291534,-0.0126800537109375,-0.996536254882812,0.105667114257812
39.0,40.4382309714123,-79.9632960453054,3.23000001907349,-0.052886962890625,-1.03755187988281,0.0235748291015625
39.0,40.42877404023,-79.9868376553804,11.75,0.115631103515625,-0.999298095703125,0.0847625732421875
40.0,40.442458502986,-79.9378321879357,0.879999995231628,-0.0132904052734375,-0.9940185546875,0.10089111328125
40.0,40.4382057531646,-79.9633283366087,3.47000002861023,-0.0369110107421875,-1.01289367675781,0.0428314208984375
40.0,40.4287774349008,-79.9869652279466,10.6999998092651,0.228134155273438,-0.953857421875,0.163040161132812
41.0,40.4424675973509,-79.937835708335,1.29999995231628,-0.0153350830078125,-0.99200439453125,0.0995635986328125
41.0,40.4381906932237,-79.9633476204671,1.87999999523163,0.0049896240234375,-1.01683044433594,0.0770263671875
41.0,40.4287659097839,-79.9870940577984,12.0600004196167,0.0065460205078125,-1.05474853515625,0.309417724609375
42.0,40.4424858279903,-79.9378337804973,2.07999992370605,-0.0130462646484375,-0.993484497070312,0.101318359375
42.0,40.4381788056199,-79.9633628422313,1.82000005245209,-0.003936767578125,-0.988052368164062,0.133987426757812
42.0,40.4287590785329,-79.9872352928668,11.9700002670288,0.163619995117188,-1.17845153808594,0.216583251953125
43.0,40.4425079143051,-79.937819950357,2.90000009536743,-0.01226806640625,-0.9962158203125,0.1031494140625
43.0,40.4381679417853,-79.9633767530859,1.82000005245209,-0.0469207763671875,-1.00700378417969,0.010101318359375
43.0,40.4287659097839,-79.9873797968775,11.960000038147,-0.186141967773438,-0.970947265625,0.217666625976562
44.0,40.4425408132751,-79.9378034380078,3.14000010490417,-0.01275634765625,-0.995254516601562,0.102569580078125
44.0,40.4381583202536,-79.9633890732042,1.04999995231628,-0.02142333984375,-0.99737548828125,0.057861328125
44.0,40.4287662869696,-79.9875189364701,11.9399995803833,0.464019775390625,-1.20419311523438,0.3870849609375
45.0,40.4425851954524,-79.9377839919924,3.33999991416931,-0.010467529296875,-0.9959716796875,0.103485107421875
45.0,40.4381537719494,-79.9633948971882,0.600000023841858,0.0336456298828125,-0.991653442382812,0.109207153320312
45.0,40.4287717352066,-79.9876531307399,11.8800001144409,-0.0991668701171875,-0.93768310546875,0.261520385742188
46.0,40.4426269792397,-79.9377471116185,2.73000001907349,-0.021240234375,-0.992767333984375,0.101119995117188
46.0,40.4381532543389,-79.9633955599749,0.660000026226044,-0.0043487548828125,-0.987091064453125,0.103713989257812
46.0,40.4287475953255,-79.9877839722484,11.7799997329712,0.0760650634765625,-0.97650146484375,0.211029052734375
47.0,40.4426816711579,-79.9377139192819,2.07999992370605,0.0175628662109375,-0.992111206054688,0.155349731445312
47.0,40.43814776484,-79.9634026907403,1.05999994277954,0.002227783203125,-0.992462158203125,0.156448364257812
47.0,40.4287405545268,-79.9879304879159,11.789999961853,-0.011138916015625,-0.877853393554688,0.0475616455078125
48.0,40.4425507458304,-79.93786211133,1.75999999046326,0.018157958984375,-1.00079345703125,0.108489990234375
48.0,40.4381407311961,-79.9634120217824,1.07000005245209,0.050262451171875,-0.970993041992188,0.22393798828125
48.0,40.4287238745395,-79.988076333031,11.3299999237061,-0.0565032958984375,-0.994705200195312,0.083282470703125
49.0,40.4425506201018,-79.9378828984498,0.970000028610229,0.07794189453125,-0.959823608398438,0.129989624023438
49.0,40.4381291822823,-79.9634273429166,2.20000004768372,0.108001708984375,-0.98773193359375,0.174423217773438
49.0,40.4287352739278,-79.9881971162557,10.789999961853,0.0278167724609375,-1.16142272949219,-0.0642852783203125
50.0,40.4424752248828,-79.937822548747,1.28999996185303,0.0789337158203125,-1.03855895996094,0.155364990234375
50.0,40.4381076846432,-79.9634558623271,3.41000008583069,0.0885772705078125,-1.00740051269531,0.169387817382812
50.0,40.4287392972414,-79.9883155525476,9.0600004196167,-0.0364837646484375,-0.878829956054688,-0.0163116455078125
51.0,40.4424828105051,-79.9378022645413,1.77999997138977,-0.0068511962890625,-0.952163696289062,0.091156005859375
51.0,40.4380770830179,-79.9634964593578,4.67999982833862,0.0247802734375,-0.961517333984375,0.219772338867188
51.0,40.4287386266891,-79.9884208292514,7.78000020980835,-0.240951538085938,-0.951095581054688,0.10345458984375
52.0,40.4424912762274,-79.9377796334028,1.36000001430511,0.091522216796875,-0.96575927734375,0.131149291992188
52.0,40.4380462662643,-79.963537341784,6.69000005722046,0.0306243896484375,-0.97412109375,0.220672607421875
52.0,40.4287376627703,-79.9884862080961,5.19999980926514,-0.113037109375,-0.98455810546875,0.299453735351562
53.0,40.4424952576314,-79.9377508834749,2.92000007629395,0.0783843994140625,-1.00067138671875,0.07666015625
53.0,40.4379932940437,-79.9636360630819,7.57000017166138,-0.0026092529296875,-0.989501953125,0.22015380859375
53.0,40.4287482239682,-79.9885315541923,2.5699999332428,-0.13189697265625,-0.967422485351562,0.230255126953125
54.0,40.4425034299869,-79.9377148412913,2.82999992370605,0.100570678710938,-1.00456237792969,0.200637817382812
54.0,40.4379618964484,-79.9637151457513,8.28999996185303,0.0572357177734375,-0.951339721679688,0.135635375976562
54.0,40.4287702264641,-79.9885618966818,2.46000003814697,-0.0538482666015625,-0.92486572265625,0.37774658203125
55.0,40.4425245104734,-79.9376808107644,3.51999998092651,0.105606079101562,-0.95343017578125,0.143310546875
55.0,40.4379267145762,-79.9638040387825,9.11999988555908,-0.0960235595703125,-1.09358215332031,0.2423095703125
55.0,40.4287940310691,-79.9885832705349,2.90000009536743,-0.082061767578125,-0.934524536132812,0.354476928710938
56.0,40.4425584152718,-79.9376505520939,3.65000009536743,0.142623901367188,-1.00970458984375,0.104049682617188
56.0,40.4378908978052,-79.9639036589545,9.5600004196167,-0.0794525146484375,-0.97357177734375,0.25543212890625
56.0,40.4288118007038,-79.9885891378671,2.99000000953674,0.00830078125,-0.9163818359375,0.279312133789062
57.0,40.4425970977549,-79.9376378954201,3.73000001907349,0.210906982421875,-1.01953125,0.0483245849609375
57.0,40.4378667422778,-79.9639708992595,9.81999969482422,-0.116806030273438,-1.03770446777344,0.17108154296875
57.0,40.4288726533208,-79.9885894731432,5.44999980926514,0.110458374023438,-0.98797607421875,0.282821655273438
58.0,40.4426452517886,-79.937640242353,4.21999979019165,0.0869598388671875,-0.9615478515625,0.181915283203125
58.0,40.4378404587673,-79.9641083668936,10.9399995803833,-0.021209716796875,-0.985275268554688,0.222671508789062
58.0,40.4289290635292,-79.9885823485255,6.38000011444092,0.0960693359375,-1.00088500976562,0.247085571289062
59.0,40.4427117202808,-79.937664046958,5.32000017166138,0.11279296875,-1.12498474121094,0.115081787109375
59.0,40.4378143846656,-79.9642541833166,11.75,0.102188110351562,-1.07487487792969,0.0531463623046875
59.0,40.4289918020744,-79.9885831028968,7.36999988555908,0.080413818359375,-0.989654541015625,0.22509765625
60.0,40.442767962851,-79.9377019331604,6.03999996185303,0.02117919921875,-0.942108154296875,0.152740478515625
60.0,40.4377905877302,-79.9644197115142,12.0799999237061,-0.0946807861328125,-1.04191589355469,-0.072906494140625
60.0,40.4290522775058,-79.9885825999826,7.65999984741211,0.14166259765625,-1.02377319335938,0.373809814453125
61.0,40.442822068036,-79.9377446808665,7.17000007629395,0.130355834960938,-1.04444885253906,0.202011108398438
61.0,40.4377764034052,-79.9645285767042,10.3500003814697,0.268020629882812,-0.912246704101562,-0.068267822265625
61.0,40.4291226016734,-79.9885812588781,8.35000038146973,-0.0038909912109375,-0.964218139648438,0.338394165039062
62.0,40.4428844293956,-79.9377947208285,7.86999988555908,-0.022735595703125,-0.925155639648438,0.179061889648438
62.0,40.4377635914552,-79.9646295755942,9.81999969482422,-0.133880615234375,-0.6553955078125,0.341018676757812
62.0,40.4291938478504,-79.9885822647065,8.26000022888184,0.0248260498046875,-0.948348999023438,0.268157958984375
63.0,40.4429510236163,-79.9378491193801,8.39000034332275,-0.060150146484375,-1.0576171875,0.200271606445312
63.0,40.4377395438161,-79.9647486670121,10.5799999237061,0.228561401367188,-1.07347106933594,0.04052734375
63.0,40.4292740207542,-79.988586204201,8.47000026702881,0.04290771484375,-0.980682373046875,0.265228271484375
64.0,40.443019000851,-79.9379047752171,8.81999969482422,0.0565032958984375,-1.15718078613281,0.054229736328125
64.0,40.4377089772429,-79.9648787875077,11.8400001525879,0.062225341796875,-0.97003173828125,0.161849975585938
64.0,40.4293471528594,-79.9885926582664,8.31999969482422,0.0311126708984375,-0.976058959960938,0.224700927734375
65.0,40.4430879420046,-79.9379595928639,8.82999992370605,0.551559448242188,-0.856475830078125,0.393524169921875
65.0,40.4376579391845,-79.9650107026801,12.3400001525879,0.0917205810546875,-1.01052856445312,0.037872314453125
65.0,40.4294219194357,-79.9885970168561,8.22999954223633,-0.105194091796875,-0.941162109375,0.2635498046875
66.0,40.4431553325061,-79.9380175956338,8.98999977111816,-0.0356903076171875,-0.983612060546875,0.214797973632812
66.0,40.4376061297328,-79.9651428101398,12.2600002288818,0.109451293945312,-1.0277099609375,0.06097412109375
66.0,40.4294982785736,-79.9885919877142,7.78999996185303,-0.0142364501953125,-0.92034912109375,0.217803955078125
67.0,40.4432190768797,-79.9380803760886,8.89000034332275,-0.0003662109375,-0.997650146484375,-0.0266571044921875
67.0,40.437576992356,-79.9652171067152,12.3100004196167,0.0698394775390625,-0.972763061523438,0.0986480712890625
67.0,40.4295710334931,-79.9885963463038,8.35999965667725,0.028533935546875,-1.12454223632812,0.20318603515625
68.0,40.4432843299959,-79.9381408096104,8.78999996185303,-0.081390380859375,-0.814132690429688,0.209701538085938
68.0,40.43752665501,-79.9653156413269,12.3800001144409,0.09356689453125,-1.09791564941406,-0.0010223388671875
68.0,40.4296385078136,-79.9885965977609,7.65000009536743,-0.0380096435546875,-0.9957275390625,0.0927581787109375
69.0,40.4433518043165,-79.9381989800184,8.85000038146973,0.0593109130859375,-0.993026733398438,0.175552368164062
69.0,40.4374404251952,-79.9655019399523,13.2600002288818,0.23260498046875,-1.12588500976562,-0.04437255859375
69.0,40.4297094187144,-79.9886017107218,7.40999984741211,-0.0562896728515625,-0.999526977539062,0.011932373046875
70.0,40.4434181470801,-79.9382631853967,9.02000045776367,0.034271240234375,-0.9942626953125,0.247909545898438
70.0,40.437356564254,-79.9655917101353,11.4700002670288,0.06121826171875,-0.933731079101562,0.0511932373046875
70.0,40.4297633981709,-79.9886040576547,5.94000005722046,-0.0673065185546875,-1.01948547363281,0.056121826171875
71.0,40.4434872139622,-79.938319260329,9.1899995803833,0.0304718017578125,-1.02229309082031,0.27734375
71.0,40.4372571967919,-79.9656788819283,13.6000003814697,-0.0267333984375,-0.93280029296875,-0.005218505859375
71.0,40.4298066068817,-79.9886039738357,4.94000005722046,-0.0514678955078125,-1.01872253417969,0.0386810302734375
72.0,40.4435594659675,-79.9383858964592,9.64999961853027,0.094207763671875,-0.989898681640625,0.1939697265625
72.0,40.4371483158697,-79.9657602702081,14.1300001144409,-0.050750732421875,-0.957168579101562,0.0472869873046875
72.0,40.4298248375211,-79.9886095058918,2.3199999332428,-0.0438079833984375,-0.996490478515625,0.1116943359375
73.0,40.4436341487248,-79.9384606630355,10.1499996185303,0.0408172607421875,-0.9500732421875,0.192657470703125
73.0,40.4370306758587,-79.9658536446094,14.5799999237061,-0.0739288330078125,-0.987899780273438,0.25457763671875
73.0,40.4298305791248,-79.9886041414738,1.00999999046326,-0.0091552734375,-0.98602294921875,0.2030029296875
74.0,40.4437191412229,-79.9385406263917,10.6499996185303,0.169845581054688,-1.10662841796875,0.0794677734375
74.0,40.43692581825,-79.965939810574,14.5900001525879,-0.16455078125,-0.892791748046875,0.248977661132812
74.0,40.4298389191184,-79.988604895845,0.430000007152557,0.0098876953125,-0.971878051757812,0.218765258789062
75.0,40.4437934887041,-79.9386163149774,10.3599996566772,0.13427734375,-0.901107788085938,-0.001434326171875
75.0,40.4437934887041,-79.9386163149774,10.3599996566772,0.13427734375,-0.901107788085938,-0.001434326171875
75.0,40.4368204996366,-79.96606914334,15.2799997329712,-0.177490234375,-0.900619506835938,0.292892456054688
75.0,40.4368204996366,-79.96606914334,15.2799997329712,-0.177490234375,-0.900619506835938,0.292892456054688
75.0,40.4298389191184,-79.988604895845,0.0,0.0303192138671875,-0.968612670898438,0.253738403320312
75.0,40.4298389191184,-79.988604895845,0.0,0.0303192138671875,-0.968612670898438,0.253738403320312
76.0,40.4438719433178,-79.9387089350074,11.039999961853,0.22662353515625,-0.988632202148438,-0.069976806640625
76.0,40.4367170669515,-79.9661913514882,15.5600004196167,-0.219879150390625,-1.01481628417969,0.319412231445312
76.0,40.4298389191184,-79.988604895845,0.0,0.095611572265625,-0.914810180664062,0.336593627929688
77.0,40.4439297365401,-79.9388143793493,10.9399995803833,0.1131591796875,-0.954910278320312,0.231796264648438
77.0,40.4366400372614,-79.9663523678481,15.5699996948242,-0.0683746337890625,-0.918899536132812,0.210647583007812
77.0,40.429849606045,-79.9886104279011,1.07000005245209,0.0723876953125,-0.960098266601562,0.404693603515625
78.0,40.4439775133882,-79.938932648003,11.1700000762939,0.104049682617188,-1.02426147460938,0.222579956054688
78.0,40.4365692939986,-79.9665197544545,15.8500003814697,-0.297103881835938,-0.850341796875,0.271484375
78.0,40.4298635619138,-79.9886081647873,1.74000000953674,0.0017242431640625,-0.816452026367188,0.314285278320312
79.0,40.4440084845204,-79.9390633218735,11.3100004196167,0.105560302734375,-0.987716674804688,0.222213745117188
79.0,40.4365196731318,-79.9667017255723,16.1700000762939,-0.0562744140625,-1.02317810058594,0.3411865234375
79.0,40.4298921861131,-79.9886069075018,2.79999995231628,0.0798187255859375,-0.890106201171875,0.348281860351562
80.0,40.444036396258,-79.9392024614661,11.8299999237061,0.08648681640625,-0.883804321289062,0.184921264648438
80.0,40.4364880123552,-79.9668789987933,16.9300003051758,-0.042572021484375,-1.03309631347656,0.39764404296875
80.0,40.4300040845204,-79.9886173848808,5.76999998092651,0.111648559570312,-0.954330444335938,0.328765869140625
81.0,40.4440581472967,-79.9393455405533,12.3100004196167,-0.0284576416015625,-0.953262329101562,0.132904052734375
81.0,40.4364612512669,-79.9670987856675,18.0499992370605,0.0653533935546875,-1.10972595214844,0.321701049804688
81.0,40.4300815333057,-79.9886303768307,7.53000020980835,0.14971923828125,-1.35464477539062,0.255111694335938
82.0,40.444082790092,-79.9394985102862,12.710000038147,0.0902099609375,-1.05032348632812,0.182357788085938
82.0,40.4364553370269,-79.9673168511871,19.4400005340576,0.003509521484375,-1.00001525878906,0.146469116210938
82.0,40.430158898272,-79.9886340648681,8.1899995803833,0.0153656005859375,-1.02677917480469,0.131271362304688
83.0,40.4441080196206,-79.9396524020284,13.1199998855591,0.034149169921875,-1.06634521484375,-0.0337371826171875
83.0,40.4364553370269,-79.9675575980236,20.7900009155273,0.08160400390625,-1.00650024414062,0.189498901367188
83.0,40.4302288033445,-79.9886433687806,7.8899998664856,-0.37493896484375,-0.79150390625,0.0241241455078125
84.0,40.4441331234206,-79.9398095627129,13.5,-0.0207977294921875,-0.97332763671875,0.111862182617188
84.0,40.4364553370269,-79.96779685942,21.3700008392334,-0.0172882080078125,-0.969879150390625,0.143692016601562
84.0,40.4302912066136,-79.9886367470771,7.94999980926514,0.361251831054688,-1.02479553222656,0.280105590820312
85.0,40.4441609513391,-79.9399696570634,13.8199996948242,0.0178680419921875,-0.970596313476562,0.0496826171875
85.0,40.4364553370269,-79.9680470538757,21.5900001525879,-0.10919189453125,-0.980087280273438,0.0535430908203125
85.0,40.4303758219261,-79.9886422791332,8.75,-0.076904296875,-0.896438598632812,0.295684814453125
86.0,40.444192299657,-79.9401304219663,13.9700002670288,0.0806121826171875,-1.05340576171875,0.0179290771484375
86.0,40.4364553370269,-79.9680470538757,21.5900001525879,-0.251907348632812,-1.08981323242188,-0.05706787109375
86.0,40.43046550829,-79.9886430335045,10.1899995803833,0.491836547851562,-1.02311706542969,0.41851806640625
87.0,40.4442198342089,-79.9402849004417,13.6999998092651,-0.154205322265625,-0.847259521484375,0.236434936523438
87.0,40.436448762231,-79.9685428106039,20.25,-0.349960327148438,-0.832244873046875,0.119842529296875
87.0,40.4305504588787,-79.9886562769115,9.89000034332275,0.119094848632812,-0.796844482421875,0.240402221679688
88.0,40.4442464467515,-79.9404422287642,13.5900001525879,0.0697021484375,-0.982345581054688,0.0718231201171875
88.0,40.436464771666,-79.9687713012844,19.0400009155273,-0.164825439453125,-0.724212646484375,0.387847900390625
88.0,40.4306416539852,-79.9886606355011,10.3500003814697,0.127517700195312,-1.06329345703125,0.244064331054688
89.0,40.4442736041177,-79.9405962043255,13.4799995422363,-0.0939483642578125,-0.848846435546875,0.0677642822265625
89.0,40.4365080641959,-79.9689915776998,19.4799995422363,-0.1466064453125,-1.04397583007812,0.313079833984375
89.0,40.4307276942212,-79.9886789918691,10.8000001907349,0.0887298583984375,-0.87664794921875,0.329345703125
90.0,40.4442986240987,-79.9407557957619,13.3900003433228,0.015472412109375,-0.829788208007812,0.107650756835938
90.0,40.4365660250564,-79.969211602658,19.7000007629395,0.056549072265625,-0.950149536132812,0.164642333984375
90.0,40.4308265587691,-79.9887013715505,12.4099998474121,-0.0573272705078125,-1.06907653808594,0.392532348632812
91.0,40.4443237698082,-79.9409123697131,13.4200000762939,0.0246429443359375,-1.01513671875,0.09063720703125
91.0,40.4366397858043,-79.9694408477097,20.9200000762939,-0.0054779052734375,-1.00357055664062,0.159866333007812
91.0,40.4309270577882,-79.9887325522303,11.960000038147,0.204559326171875,-1.03958129882812,0.327850341796875
92.0,40.444350801446,-79.9410681054741,13.5,-0.0436248779296875,-0.961410522460938,0.0439453125
92.0,40.4367109062527,-79.9696697574854,21.5300006866455,-0.0001678466796875,-1.26197814941406,0.123870849609375
92.0,40.4310365254436,-79.9887635652721,12.6000003814697,0.06365966796875,-0.874496459960938,0.15802001953125
93.0,40.4443785455455,-79.9412208237498,13.5200004577637,-0.143051147460938,-0.984451293945312,0.182754516601562
93.0,40.4367887322236,-79.9699054566025,21.4400005340576,-0.103866577148438,-0.974334716796875,0.19854736328125
93.0,40.431152656712,-79.9887952488661,13.2399997711182,0.162628173828125,-0.985946655273438,0.4365234375
94.0,40.4444044037167,-79.9413799960911,13.4899997711182,-0.076873779296875,-0.7249755859375,0.123184204101562
94.0,40.436862534881,-79.9701433350146,21.0,-0.11346435546875,-0.949142456054688,0.02545166015625
94.0,40.4312610766296,-79.9888305366784,13.4700002670288,-0.0143585205078125,-1.07888793945312,0.171707153320312
95.0,40.444426196665,-79.9415345583856,13.460000038147,0.06103515625,-1.06057739257812,0.128204345703125
95.0,40.4369369242717,-79.9703594204783,19.9799995422363,-0.07000732421875,-0.93841552734375,0.0323638916015625
95.0,40.4313761601601,-79.988869177252,14.6700000762939,0.060089111328125,-1.02803039550781,0.393722534179688
96.0,40.4444526415695,-79.9416797329485,12.9899997711182,0.01470947265625,-1.04776000976562,-0.042388916015625
96.0,40.4370035184924,-79.9705748353898,18.8799991607666,-0.114273071289062,-1.00962829589844,0.134811401367188
96.0,40.4315042775501,-79.9888975080848,14.8199996948242,0.134765625,-1.34786987304688,0.409027099609375
97.0,40.4444795474787,-79.9418199621885,12.3500003814697,-0.0391845703125,-1.04156494140625,0.0101470947265625
97.0,40.4370706156273,-79.9707923457771,18.8299999237061,-0.227890014648438,-0.841522216796875,0.0489044189453125
97.0,40.4316344065968,-79.988943021819,15.0100002288818,0.0048065185546875,-1.004150390625,0.215286254882812
98.0,40.4445047350977,-79.9419477862119,11.460000038147,-0.113739013671875,-1.00996398925781,0.07012939453125
98.0,40.437137293667,-79.9709878955781,18.5900001525879,-0.0425567626953125,-0.97369384765625,0.224227905273438
98.0,40.4317744262893,-79.9889940676093,15.1400003433228,0.12628173828125,-0.931869506835938,0.160186767578125
99.0,40.4445275757838,-79.942066976875,10.460000038147,-0.04937744140625,-0.960693359375,-0.0324859619140625
99.0,40.4372035526116,-79.9711919111013,18.3799991607666,-0.199462890625,-0.89801025390625,0.074462890625
99.0,40.4319208581377,-79.9890280981362,16.0,0.0086669921875,-0.888137817382812,0.310836791992188
100.0,40.4445468541611,-79.9421719183027,9.47999954223633,-0.090972900390625,-0.950042724609375,0.0260162353515625
100.0,40.4372743796934,-79.971378827542,17.7900009155273,-0.203994750976562,-0.942230224609375,0.02056884765625
100.0,40.4320543399457,-79.9890691694617,16.7600002288818,0.0448455810546875,-0.8778076171875,0.290115356445312
101.0,40.4445643723388,-79.9422668014466,8.43000030517578,-0.075958251953125,-1.09454345703125,-0.04595947265625
101.0,40.4373331368346,-79.9715541769564,16.0400009155273,-0.144882202148438,-1.0137939453125,-0.133148193359375
101.0,40.432203202546,-79.9891109951585,16.9599990844727,0.0005340576171875,-0.79669189453125,0.12322998046875
102.0,40.4445776157458,-79.9423415680229,7.05999994277954,-0.120849609375,-0.972137451171875,-0.12518310546875
102.0,40.4373904690523,-79.9717062246799,13.5699996948242,-0.124252319335938,-0.993362426757812,-0.136184692382812
102.0,40.4323502211277,-79.9891498871893,17.2299995422363,-0.112152099609375,-0.982162475585938,0.2056884765625
103.0,40.4445889313151,-79.94239722386,5.21000003814697,-0.118316650390625,-1.01649475097656,-0.0499114990234375
103.0,40.4374394612763,-79.9718304444849,10.8400001525879,-0.171981811523438,-0.965576171875,-0.13336181640625
103.0,40.4325003410135,-79.9892011844367,17.6399993896484,-0.0440216064453125,-0.852325439453125,0.381134033203125
104.0,40.4445926193525,-79.9424358644336,3.30999994277954,-0.149368286132812,-1.0074462890625,-0.0718231201171875
104.0,40.4374699714039,-79.9719197955727,8.13000011444092,-0.163009643554688,-1.03219604492188,-0.136886596679688
104.0,40.4326583398883,-79.9892403279245,17.7700004577637,0.121902465820312,-1.24824523925781,0.152374267578125
105.0,40.4445965588469,-79.9424488563835,1.48000001907349,-0.0252838134765625,-0.99017333984375,0.099151611328125
105.0,40.4374907585238,-79.9719876051694,5.1399998664856,-0.189895629882812,-1.02415466308594,-0.15228271484375
105.0,40.4328125249971,-79.9892784655839,17.5599994659424,-0.10150146484375,-0.92022705078125,0.177566528320312
106.0,40.4445965588469,-79.9424488563835,0.0,0.0030670166015625,-0.987380981445312,0.083770751953125
106.0,40.437499391884,-79.9720228091627,2.46000003814697,-0.148345947265625,-0.999130249023438,-0.0514373779296875
106.0,40.4329679254819,-79.9893181119859,17.3700008392334,-0.05194091796875,-0.9521484375,0.122940063476562
107.0,40.4445965588469,-79.9424488563835,0.0,0.0029144287109375,-0.981430053710938,0.12579345703125
107.0,40.4375011939932,-79.9720433448255,0.349999994039536,-0.024078369140625,-1.00459289550781,0.10797119140625
107.0,40.4331185063724,-79.9893779587746,17.0900001525879,-0.0455780029296875,-0.905197143554688,0.141159057617188
108.0,40.4445965588469,-79.9424488563835,0.0,-0.04583740234375,-0.9903564453125,0.0709381103515625
108.0,40.4375011939932,-79.9720433448255,0.0,-0.0265045166015625,-0.990997314453125,0.101318359375
108.0,40.4332732363049,-79.9894207902998,17.2900009155273,0.007080078125,-0.778045654296875,0.2640380859375
109.0,40.4445971874897,-79.9424524606019,0.629999995231628,-0.0338592529296875,-0.9903564453125,0.0689239501953125
109.0,40.4375011939932,-79.9720433448255,0.0,-0.021392822265625,-0.994781494140625,0.0982666015625
109.0,40.4334225599099,-79.9894729257375,16.6100006103516,0.0126800537109375,-0.797866821289062,0.0472564697265625
110.0,40.4445973970373,-79.9424595014005,0.810000002384186,-0.024993896484375,-0.988739013671875,0.0619049072265625
110.0,40.4375011939932,-79.9720433448255,0.0,-0.02838134765625,-0.993789672851562,0.101638793945312
110.0,40.433562956788,-79.9895150028914,15.8199996948242,0.0027618408203125,-1.19013977050781,0.154312133789062
111.0,40.4445961397518,-79.9424638599902,0.180000007152557,-0.02215576171875,-1.00064086914062,0.0820159912109375
111.0,40.4375011939932,-79.9720433448255,0.0,-0.0237579345703125,-0.995346069335938,0.0990142822265625
111.0,40.4336974444244,-79.989553643465,14.9099998474121,-0.204483032226562,-1.01942443847656,-0.000701904296875
112.0,40.4445919488002,-79.9424671289324,0.550000011920929,-0.0141143798828125,-0.997344970703125,0.085845947265625
112.0,40.4375011939932,-79.9720433448255,0.0,-0.0322723388671875,-0.992080688476562,0.101394653320312
112.0,40.4338155454401,-79.98958784163,13.0500001907349,-0.30511474609375,-0.79876708984375,-0.0624237060546875
113.0,40.4445919488002,-79.9424671289324,0.0,-1.52587890625e-05,-0.990951538085938,0.1148681640625
113.0,40.4375011939932,-79.9720433448255,0.0,-0.02886962890625,-0.994476318359375,0.0991058349609375
113.0,40.4339193134014,-79.9896121491492,11.1899995803833,-0.107681274414062,-1.02853393554688,0.0420074462890625
114.0,40.4445803817738,-79.9424543884396,0.280000001192093,-0.0210723876953125,-0.981979370117188,0.070343017578125
114.0,40.4375011939932,-79.9720433448255,0.0,-0.0287933349609375,-0.993362426757812,0.101089477539062
114.0,40.4340156633783,-79.9896284100413,9.59000015258789,0.023101806640625,-1.028564453125,0.042327880859375
115.0,40.444586249106,-79.9424533826112,0.649999976158142,-0.01629638671875,-0.993637084960938,0.0805206298828125
115.0,40.4375011939932,-79.9720433448255,0.0,-0.0262603759765625,-0.992767333984375,0.0988006591796875
115.0,40.4341002786909,-79.9896481075138,7.8899998664856,-0.145843505859375,-1.07510375976562,-0.0096893310546875
116.0,40.4445841955398,-79.9424647819995,0.159999996423721,0.0022430419921875,-0.986190795898438,0.107406616210938
116.0,40.4375011939932,-79.9720433448255,0.0,-0.0272674560546875,-0.995040893554688,0.09613037109375
116.0,40.4341582814608,-79.9896605127305,5.38000011444092,-0.112396240234375,-1.0242919921875,-0.0131988525390625
117.0,40.4445841955398,-79.9424647819995,0.0,-0.0158843994140625,-0.986404418945312,0.084808349609375
117.0,40.4375011939932,-79.9720433448255,0.0,-0.0304107666015625,-0.993484497070312,0.101272583007812
117.0,40.4341922281687,-79.9896745105088,2.75,-0.0855712890625,-1.02070617675781,0.013763427734375
118.0,40.4445841955398,-79.9424647819995,0.0,-0.00775146484375,-0.992080688476562,0.0965118408203125
118.0,40.4375011939932,-79.9720433448255,0.0,-0.0292510986328125,-0.993789672851562,0.0955963134765625
118.0,40.4342145659406,-79.9896815513074,1.74000000953674,-0.0128326416015625,-0.951217651367188,0.195388793945312
119.0,40.4445841955398,-79.9424647819995,0.0,-0.01556396484375,-1.00004577636719,0.09149169921875
119.0,40.4375011939932,-79.9720433448255,0.0,0.003631591796875,-0.989410400390625,0.155776977539062
119.0,40.4342178767924,-79.9896844849735,0.150000005960464,0.0199127197265625,-0.975814819335938,0.228302001953125
120.0,40.4445841955398,-79.9424647819995,0.0,-0.0126800537109375,-0.99432373046875,0.0886077880859375
120.0,40.4374984279652,-79.9720238988101,0.699999988079071,0.0673065185546875,-0.993408203125,0.2376708984375
120.0,40.4342178767924,-79.9896844849735,0.0,-0.00677490234375,-0.977325439453125,0.208267211914062
121.0,40.4445841955398,-79.9424647819995,0.0,-0.012847900390625,-0.993942260742188,0.0893402099609375
121.0,40.4375056364019,-79.9720460270345,2.15000009536743,0.017059326171875,-1.00875854492188,0.168472290039062
121.0,40.4342178767924,-79.9896844849735,0.0,0.0052947998046875,-0.987869262695312,0.185455322265625
122.0,40.4445841955398,-79.9424647819995,0.0,-0.010955810546875,-0.994873046875,0.090850830078125
122.0,40.4375160718713,-79.972076369524,3.03999996185303,0.0245513916015625,-0.960861206054688,0.150604248046875
122.0,40.4342178767924,-79.9896844849735,0.0,-0.0093841552734375,-0.983566284179688,0.191558837890625
123.0,40.4445841955398,-79.9424647819995,0.0,-0.0132598876953125,-0.995559692382812,0.08758544921875
123.0,40.4375334224109,-79.9721146748215,3.8199999332428,0.0252532958984375,-1.01042175292969,0.1356201171875
123.0,40.4342178767924,-79.9896844849735,0.0,0.006988525390625,-0.974777221679688,0.198562622070312
124.0,40.4445841955398,-79.9424647819995,0.0,-0.0097198486328125,-0.996597290039062,0.08551025390625
124.0,40.4375473782797,-79.972163541317,4.76000022888184,-0.0140533447265625,-0.974578857421875,0.181381225585938
124.0,40.4342178767924,-79.9896844849735,0.0,0.0005645751953125,-0.97955322265625,0.225631713867188
125.0,40.4445841955398,-79.9424647819995,0.0,-0.011199951171875,-0.993362426757812,0.0933380126953125
125.0,40.4375637229909,-79.9722155929357,4.92000007629395,-0.0088958740234375,-1.0013427734375,0.134490966796875
125.0,40.4342178767924,-79.9896844849735,0.0,0.00341796875,-0.979629516601562,0.210281372070312
126.0,40.4445841955398,-79.9424647819995,0.0,-0.0156707763671875,-0.996185302734375,0.0898284912109375
126.0,40.4375685425852,-79.9722612743079,5.28999996185303,-0.036285400390625,-0.982437133789062,0.131072998046875
126.0,40.4342178767924,-79.9896844849735,0.0,-0.0010223388671875,-0.977828979492188,0.211532592773438
127.0,40.4445841955398,-79.9424647819995,0.0,-0.0135650634765625,-0.994155883789062,0.0908966064453125
127.0,40.4375920957331,-79.9723228812963,5.84999990463257,0.04010009765625,-0.995361328125,0.102996826171875
127.0,40.4342178767924,-79.9896844849735,0.0,-0.003387451171875,-0.978790283203125,0.213348388671875
128.0,40.4445841955398,-79.9424647819995,0.0,-0.013458251953125,-0.99542236328125,0.090179443359375
128.0,40.4376138886813,-79.9723925349116,6.40000009536743,0.148651123046875,-1.00634765625,0.043975830078125
128.0,40.4341704771299,-79.98967526488,0.0,0.0027313232421875,-0.975494384765625,0.207473754882812
129.0,40.4445841955398,-79.9424647819995,0.0,-0.01226806640625,-0.995681762695312,0.0908966064453125
129.0,40.4376317421351,-79.972462356165,6.92000007629395,0.26422119140625,-0.944656372070312,0.0262908935546875
129.0,40.4341704771299,-79.98967526488,0.0,0.002838134765625,-0.977462768554688,0.210205078125
130.0,40.4445841955398,-79.9424647819995,0.0,-0.0124359130859375,-0.993377685546875,0.088043212890625
130.0,40.4376311134924,-79.972544247359,6.65999984741211,0.552627563476562,-1.06532287597656,-0.14398193359375
130.0,40.4341704771299,-79.98967526488,0.0,-0.0008697509765625,-0.979415893554688,0.211196899414062
131.0,40.4445841955398,-79.9424647819995,0.0,-0.0125732421875,-0.993392944335938,0.0911712646484375
131.0,40.4375744099174,-79.9726254680007,7.82000017166138,0.4600830078125,-1.02857971191406,0.050567626953125
131.0,40.4341704771299,-79.98967526488,0.0,0.0242156982421875,-0.958175659179688,0.265579223632812
132.0,40.4445841955398,-79.9424647819995,0.0,-0.0139923095703125,-0.995391845703125,0.0872344970703125
132.0,40.4375159880523,-79.972684225142,8.14999961853027,0.2193603515625,-0.936431884765625,-0.0191497802734375
132.0,40.4341869056601,-79.9896944594383,0.649999976158142,0.0195770263671875,-0.976455688476562,0.239105224609375
133.0,40.4445841955398,-79.9424647819995,0.0,-0.010528564453125,-0.995223999023438,0.09039306640625
133.0,40.4374372819815,-79.9727207702398,9.52000045776367,-0.0233306884765625,-1.35714721679688,0.304412841796875
133.0,40.4341990594197,-79.9896920286864,0.699999988079071,0.0097198486328125,-0.930526733398438,0.258071899414062
134.0,40.4445841955398,-79.9424647819995,0.0,-0.0111846923828125,-0.992965698242188,0.0849456787109375
134.0,40.4373536305879,-79.9727409706264,10.0200004577637,0.141494750976562,-1.03724670410156,0.240036010742188
134.0,40.4342217743773,-79.9896914419532,2.07999992370605,0.0135955810546875,-1.02995300292969,0.229019165039062
135.0,40.4445841955398,-79.9424647819995,0.0,-0.009368896484375,-1.0008544921875,0.08929443359375
135.0,40.4372605495531,-79.9727590755373,11.0299997329712,0.105361938476562,-1.05816650390625,0.261306762695312
135.0,40.434243357778,-79.9896978960186,2.40000009536743,-0.0086669921875,-0.940826416015625,0.253067016601562
136.0,40.4445841955398,-79.9424647819995,0.0,-0.0116424560546875,-0.995010375976562,0.0922698974609375
136.0,40.4371540155638,-79.972779359743,12.4799995422363,0.139541625976562,-0.995071411132812,0.244277954101562
136.0,40.4342656117309,-79.9897037633508,2.60999989509583,0.0670013427734375,-0.97998046875,0.272262573242188
137.0,40.4445841955398,-79.9424647819995,0.0,-0.0112762451171875,-0.993896484375,0.0915374755859375
137.0,40.4370324779678,-79.9728003983199,13.8000001907349,0.0519256591796875,-0.9322509765625,0.13812255859375
137.0,40.4342890810598,-79.9897108879685,2.72000002861023,0.348114013671875,-1.07675170898438,0.48431396484375
138.0,40.4445841955398,-79.9424647819995,0.0,-0.015960693359375,-0.996109008789062,0.087921142578125
138.0,40.4369079647962,-79.9728268013149,14.7799997329712,0.041412353515625,-0.942474365234375,0.068603515625
138.0,40.434302743562,-79.9897186831385,1.6599999666214,0.271926879882812,-1.04280090332031,0.310623168945312
139.0,40.4445841955398,-79.9424647819995,0.0,-0.0116424560546875,-0.996307373046875,0.08740234375
139.0,40.4367737286169,-79.9728573952615,15.7399997711182,-0.06732177734375,-0.815185546875,0.021087646484375
139.0,40.4343125084792,-79.9897295796126,1.66999995708466,0.0951385498046875,-0.80804443359375,0.376510620117188
140.0,40.4445841955398,-79.9424647819995,0.0,0.0505218505859375,-0.985641479492188,0.166030883789062
140.0,40.4366256203879,-79.9728805293143,16.7000007629395,0.08367919921875,-1.13334655761719,0.278091430664062
140.0,40.4343600338701,-79.9897661247104,5.46999979019165,0.179443359375,-0.96087646484375,0.295730590820312
141.0,40.4445731314276,-79.9424825516343,0.340000003576279,0.016876220703125,-1.10084533691406,0.210403442382812
141.0,40.4364722734694,-79.9729118776321,17.7800006866455,0.0894927978515625,-1.1796875,0.242874145507812
141.0,40.4344008118291,-79.989796802476,5.19999980926514,0.28546142578125,-1.037353515625,0.192398071289062
142.0,40.4445745563511,-79.942495208308,1.44000005722046,0.0394744873046875,-1.05155944824219,0.395858764648438
142.0,40.436306186058,-79.972948590368,18.7199993133545,-0.251876831054688,-1.04350280761719,0.0148468017578125
142.0,40.4344556713853,-79.9898792804032,7.38000011444092,0.294235229492188,-0.935226440429688,0.200698852539062
143.0,40.4445805494119,-79.9425284006446,2.99000000953674,0.0699462890625,-0.966049194335938,0.0863037109375
143.0,40.4361393023659,-79.9729868956655,19.4500007629395,-0.0177459716796875,-0.829437255859375,-0.0594635009765625
143.0,40.4344921745736,-79.9899798632413,8.52999973297119,0.253082275390625,-0.907241821289062,0.265777587890625
144.0,40.4445864167441,-79.9425710645317,4.23000001907349,0.0383148193359375,-1.01533508300781,0.02557373046875
144.0,40.4359636595849,-79.9730310682952,19.9699993133545,0.064544677734375,-0.958847045898438,0.0904693603515625
144.0,40.4345124168698,-79.9900729861855,8.31999969482422,0.0983123779296875,-0.834426879882812,0.343719482421875
145.0,40.4445947567378,-79.9426221103221,4.48999977111816,0.0110015869140625,-1.01063537597656,0.110244750976562
145.0,40.4357813951005,-79.9730719719827,20.3500003814697,0.41839599609375,-1.10867309570312,0.608749389648438
145.0,40.4345321562518,-79.9902158138156,10.4499998092651,0.137313842773438,-0.949234008789062,0.451034545898438
146.0,40.4446252249558,-79.94268547751,5.07999992370605,-0.10516357421875,-1.08152770996094,0.0930938720703125
146.0,40.4355990048875,-79.9731104449182,20.8600006103516,0.036773681640625,-1.156494140625,0.145111083984375
146.0,40.4345396161456,-79.9903573841601,12.2200002670288,0.248046875,-0.99102783203125,0.290023803710938
147.0,40.4446400609244,-79.9427394569665,5.17000007629395,0.0451507568359375,-0.925888061523438,0.2061767578125
147.0,40.4354103282471,-79.9731523544341,21.1100006103516,0.0411224365234375,-0.968978881835938,0.093780517578125
147.0,40.4345488781486,-79.9905010499805,12.2299995422363,0.106292724609375,-0.7489013671875,0.223739624023438
148.0,40.4446436232333,-79.9428093620389,5.67000007629395,0.0345306396484375,-0.915451049804688,0.088287353515625
148.0,40.4352149460841,-79.9731975328922,21.5100002288818,-0.193359375,-0.767471313476562,-0.01800537109375
148.0,40.434576286972,-79.9906837754696,13.75,0.0271148681640625,-0.964797973632812,0.339035034179688
149.0,40.4446514603127,-79.9428893253952,6.73000001907349,0.101425170898438,-0.948348999023438,0.175888061523438
149.0,40.4350245511536,-79.9732416217029,21.7800006866455,-0.775970458984375,-0.74713134765625,-0.460418701171875
149.0,40.4345933022354,-79.9908494018763,14.3999996185303,-0.06109619140625,-0.99169921875,0.27783203125
150.0,40.4446603870396,-79.942981274873,8.02999973297119,0.07574462890625,-0.94061279296875,0.188491821289062
150.0,40.434833988585,-79.9732847885042,22.0400009155273,-0.041473388671875,-0.900955200195312,0.0293426513671875
150.0,40.434612119608,-79.9910271820426,14.7200002670288,0.141860961914062,-1.10475158691406,0.375686645507812
151.0,40.4446674278383,-79.9430882279574,8.97000026702881,0.215896606445312,-1.08198547363281,0.238906860351562
151.0,40.4346341221039,-79.9733272009343,22.0300006866455,-0.0363616943359375,-0.963241577148438,0.123580932617188
151.0,40.4346292606,-79.9912021123618,14.8299999237061,0.038848876953125,-0.819305419921875,0.18328857421875
152.0,40.4446701519568,-79.943203395307,9.96000003814697,0.115951538085938,-1.02012634277344,0.146133422851562
152.0,40.4344441462685,-79.9733618181944,22.0,0.2158203125,-0.760879516601562,0.1810302734375
152.0,40.4346401151646,-79.9913724326342,14.6400003433228,-0.0093841552734375,-0.958236694335938,0.1778564453125
153.0,40.444673253261,-79.9433241785317,11.1400003433228,0.18609619140625,-1.04408264160156,0.185226440429688
153.0,40.4342431482304,-79.9734043982625,21.9799995422363,-0.212783813476562,-1.00750732421875,0.152435302734375
153.0,40.4346513050054,-79.9915458542108,14.3699998855591,-0.027984619140625,-1.04376220703125,0.215606689453125
154.0,40.4446680983905,-79.9434531760215,12.1499996185303,0.116836547851562,-0.892990112304688,0.134796142578125
154.0,40.4340436170254,-79.9734505825489,21.9699993133545,0.006103515625,-0.945388793945312,0.111068725585938
154.0,40.4346617404748,-79.9917056132853,13.8299999237061,-0.161300659179688,-0.918243408203125,0.220504760742188
155.0,40.4446657514576,-79.9436064810305,13.1099996566772,0.056915283203125,-1.11503601074219,0.134017944335938
155.0,40.4338507075239,-79.9734913185984,21.7900009155273,-0.023651123046875,-0.988510131835938,0.131271362304688
155.0,40.4346840363372,-79.9918652047217,13.289999961853,-0.09991455078125,-1.05171203613281,0.325775146484375
156.0,40.4446651647244,-79.9437621329724,13.4200000762939,-0.0055999755859375,-0.80078125,0.094451904296875
156.0,40.4336532717947,-79.973532557562,21.6900005340576,0.1265869140625,-1.17106628417969,-0.045989990234375
156.0,40.4347004648675,-79.9920177553594,12.8999996185303,-0.107315063476562,-0.841934204101562,0.238143920898438
157.0,40.444663991258,-79.9439217244088,13.7700004577637,0.0751495361328125,-1.08598327636719,0.1265869140625
157.0,40.4334607813884,-79.9735717848688,21.5699996948242,0.29290771484375,-1.16323852539062,0.66064453125
157.0,40.434732190371,-79.9921579007804,12.1899995803833,0.0259857177734375,-1.00599670410156,0.369293212890625
158.0,40.4446567828212,-79.9440891948342,13.9200000762939,0.094024658203125,-1.04388427734375,0.104522705078125
158.0,40.4332679976154,-79.9736097548902,21.3999996185303,0.0753173828125,-0.926910400390625,0.12335205078125
158.0,40.4347720882301,-79.9922898319363,12.0,-0.104782104492188,-0.785308837890625,0.280593872070312
159.0,40.4446532205124,-79.9442398176342,13.7399997711182,0.0274658203125,-1.02218627929688,0.124053955078125
159.0,40.4330654908348,-79.9736581184715,21.8799991607666,0.0124969482421875,-1.04792785644531,0.221054077148438
159.0,40.4348141234745,-79.99241849415,12.960000038147,0.0355987548828125,-0.879928588867188,0.2769775390625
160.0,40.4446510412176,-79.9443986546993,13.960000038147,0.634780883789062,-0.933700561523438,0.824554443359375
160.0,40.4328721203286,-79.9736970105022,21.8799991607666,-0.009246826171875,-1.10580444335938,0.204803466796875
160.0,40.4348663008217,-79.9925557059049,13.4899997711182,0.0274658203125,-0.981414794921875,0.253631591796875
161.0,40.4446492810179,-79.9445597548782,14.1300001144409,-0.004730224609375,-1.1483154296875,0.0735931396484375
161.0,40.4326752294231,-79.9737374950945,21.8400001525879,-0.0131683349609375,-1.06027221679688,0.130584716796875
161.0,40.4349197354544,-79.9927028083056,13.6400003433228,0.0590972900390625,-0.933731079101562,0.190261840820312
162.0,40.4446396418292,-79.9447277282178,14.4300003051758,-0.027496337890625,-1.00057983398438,0.0969696044921875
162.0,40.4324832000215,-79.9737760518491,21.7800006866455,-0.184005737304688,-1.03871154785156,0.333389282226562
162.0,40.4349725414444,-79.9928451330215,13.6899995803833,-0.0571441650390625,-0.9969482421875,0.183258056640625
163.0,40.4446281586219,-79.9448940251767,14.4700002670288,-0.064208984375,-0.922592163085938,0.0266265869140625
163.0,40.4322882788632,-79.9738150276988,21.75,0.140914916992188,-0.956008911132812,0.0560150146484375
163.0,40.435022958592,-79.9929916486889,13.8699998855591,0.0281829833984375,-0.962539672851562,0.3558349609375
164.0,40.4446139932055,-79.9450573046505,14.539999961853,0.493942260742188,-1.15226745605469,0.319900512695312
164.0,40.4320965847377,-79.9738483038544,21.7700004577637,-0.0116119384765625,-0.94781494140625,0.12225341796875
164.0,40.435073166192,-79.9931409303844,13.9499998092651,-0.0715179443359375,-0.974517822265625,0.113235473632812
165.0,40.4446030548219,-79.9452285469323,14.6300001144409,0.113754272460938,-1.01737976074219,0.106414794921875
165.0,40.4319088301067,-79.9738809094578,20.8600006103516,-0.0493927001953125,-1.20303344726562,0.033172607421875
165.0,40.4351256369058,-79.9932809081673,13.960000038147,0.0366058349609375,-0.841964721679688,0.0869598388671875
166.0,40.444594128095,-79.9454066623747,15.1099996566772,-0.102310180664062,-1.067138671875,0.229248046875
166.0,40.4317316785831,-79.9739034567773,18.9799995422363,-0.171096801757812,-1.27113342285156,-0.04034423828125
166.0,40.4351784428958,-79.9934292678535,13.8500003814697,0.052947998046875,-0.914199829101562,0.0376739501953125
167.0,40.4445831058924,-79.9455833528935,15.5600004196167,0.02606201171875,-1.07614135742188,0.136077880859375
167.0,40.4315717099611,-79.973918376565,16.9599990844727,-0.0450439453125,-1.01292419433594,-0.169281005859375
167.0,40.4352276446674,-79.9935699161887,12.8100004196167,-0.195724487304688,-0.999832153320312,0.20220947265625
168.0,40.4445761908222,-79.945769598782,15.9499998092651,-0.057342529296875,-1.046142578125,0.244949340820312
168.0,40.4314339533825,-79.9739194662124,15.0,-0.073028564453125,-1.00877380371094,0.0077056884765625
168.0,40.4352591606234,-79.9936818984151,11.8100004196167,0.192535400390625,-1.03060913085938,0.163299560546875
169.0,40.4445639113341,-79.9459561799466,16.3199996948242,0.081085205078125,-0.996414184570312,0.078155517578125
169.0,40.4313060455401,-79.9739089050144,13.2700004577637,-0.04278564453125,-0.897415161132812,-0.155990600585938
169.0,40.4353104997803,-79.9938098900765,11.7600002288818,-0.18731689453125,-1.31153869628906,0.122100830078125
170.0,40.4445506679271,-79.9461441022157,16.7099990844727,-0.000244140625,-1.04640197753906,0.0047760009765625
170.0,40.4311965359751,-79.9738928117603,11.9099998474121,-0.151947021484375,-0.963165283203125,0.108993530273438
170.0,40.4353650240604,-79.9939289131015,11.9300003051758,-0.113906860351562,-1.00704956054688,0.15740966796875
171.0,40.444554314055,-79.946358930394,17.2000007629395,0.288360595703125,-1.49517822265625,0.115890502929688
171.0,40.4310940672089,-79.9738694262504,11.1199998855591,0.0106658935546875,-1.04512023925781,0.11798095703125
171.0,40.435428684615,-79.9940527138114,12.1700000762939,-0.141372680664062,-0.832015991210938,0.23089599609375
172.0,40.4445403581862,-79.9465594255179,17.2299995422363,0.118804931640625,-1.07968139648438,-0.0022735595703125
172.0,40.4309975915034,-79.97384176597,11.1099996566772,0.0826568603515625,-1.01597595214844,0.14874267578125
172.0,40.4354966199402,-79.9941681326181,12.289999961853,0.188812255859375,-1.000244140625,0.273651123046875
173.0,40.4445261089508,-79.9467559811472,17.3299999237061,0.116928100585938,-0.957000732421875,0.0084686279296875
173.0,40.4308925662566,-79.9738129322231,12.6700000762939,0.203964233398438,-0.90631103515625,0.402297973632812
173.0,40.4355614539612,-79.9942812883109,12.4799995422363,0.0843353271484375,-1.11740112304688,0.304351806640625
174.0,40.4444998735939,-79.9469529558718,17.2900009155273,0.23089599609375,-1.25569152832031,-0.3409423828125
174.0,40.4307682207231,-79.9737749622017,14.7700004577637,-0.01165771484375,-0.97283935546875,0.438323974609375
174.0,40.4356324486811,-79.9944016524404,11.9799995422363,0.02520751953125,-1.14822387695312,0.22113037109375
175.0,40.4445057409261,-79.9471239466965,16.6900005340576,-0.141860961914062,-1.15263366699219,0.188095092773438
175.0,40.430626692288,-79.9737367407232,17.0300006866455,0.15240478515625,-1.18659973144531,0.351043701171875
175.0,40.4356854642187,-79.9945158977806,11.5500001907349,-0.0418701171875,-1.04495239257812,0.196701049804688
176.0,40.4444952216376,-79.9473117013275,16.0900001525879,-0.193923950195312,-1.00111389160156,0.4810791015625
176.0,40.4304672265802,-79.973699189797,18.7900009155273,-0.00244140625,-1.05044555664062,0.38592529296875
176.0,40.4357288824771,-79.9946273770928,11.6700000762939,0.0615692138671875,-1.00521850585938,0.110748291015625
177.0,40.4444770748172,-79.9474959355592,15.5600004196167,-0.03204345703125,-1.075927734375,0.0599517822265625
177.0,40.4302920867134,-79.9736612197757,19.6100006103516,0.125869750976562,-1.14158630371094,0.116683959960938
177.0,40.4357958538834,-79.9947397784144,12.2700004577637,0.0418548583984375,-0.86065673828125,0.254913330078125
178.0,40.4444590956349,-79.9476732128113,15.0500001907349,-0.0299835205078125,-0.885833740234375,0.154617309570312
178.0,40.4301166115705,-79.9736331404,19.8299999237061,-0.0173187255859375,-0.95709228515625,0.261123657226562
178.0,40.4358292976771,-79.9948501680791,12.0799999237061,-0.15545654296875,-0.92034912109375,0.292816162109375
179.0,40.4444373026867,-79.9478499871492,14.7299995422363,0.049957275390625,-1.03536987304688,0.228622436523438
179.0,40.4299418907989,-79.9736113474518,19.6000003814697,-0.681838989257812,-1.13410949707031,0.306884765625
179.0,40.4358873842661,-79.9949458055943,11.960000038147,0.101409912109375,-1.15922546386719,0.240310668945312
180.0,40.4444121150677,-79.9480187986791,14.6499996185303,0.004425048828125,-0.942337036132812,0.173965454101562
180.0,40.4297672957558,-79.9735963438451,19.2600002288818,0.02093505859375,-0.988449096679688,-0.00201416015625
180.0,40.4359182296697,-79.9950119388103,10.8199996948242,0.0438385009765625,-0.894790649414062,0.189056396484375
181.0,40.4443818983067,-79.9481897056847,14.710000038147,-0.0246429443359375,-0.957717895507812,0.156524658203125
181.0,40.4295970593024,-79.9735883810371,18.8099994659424,-0.113189697265625,-0.992523193359375,0.111221313476562
181.0,40.4359606001903,-79.9951004517078,9.90999984741211,-0.0736083984375,-0.740936279296875,0.112777709960938
182.0,40.4444089299445,-79.9483495485782,13.6800003051758,0.086578369140625,-1.06024169921875,-0.0377349853515625
182.0,40.4294287087772,-79.9735903926939,18.2700004577637,-0.06219482421875,-0.931625366210938,0.043548583984375
182.0,40.435965042599,-79.9952412676811,9.53999996185303,0.152618408203125,-1.16592407226562,0.206893920898438
183.0,40.4443973629181,-79.9485052005201,13.3800001144409,0.310745239257812,-0.612548828125,-0.0111541748046875
183.0,40.4292678181459,-79.9736022949964,17.5900001525879,-0.071136474609375,-1.0303955078125,0.057373046875
183.0,40.4360420303796,-79.995315028429,9.19999980926514,-0.136703491210938,-1.00279235839844,0.0841064453125
184.0,40.4443769948934,-79.9486606010049,13.6300001144409,0.074371337890625,-0.930343627929688,0.0786895751953125
184.0,40.4291171115268,-79.9736173824221,16.7999992370605,-0.131317138671875,-0.908798217773438,-0.0186920166015625
184.0,40.436084065624,-79.9954000209272,8.5600004196167,-0.0915069580078125,-0.976760864257812,0.12579345703125
185.0,40.4443432996426,-79.948811475262,13.539999961853,0.02069091796875,-0.99761962890625,0.178375244140625
185.0,40.4289775109295,-79.9736324698478,14.960000038147,0.0411376953125,-0.98370361328125,-0.0130157470703125
185.0,40.4361349856858,-79.9954636395723,7.88000011444092,0.0586395263671875,-0.908935546875,0.310699462890625
186.0,40.4443065449972,-79.948951620683,13.4799995422363,0.094482421875,-0.949264526367188,0.0427398681640625
186.0,40.4288516147439,-79.9736452941596,13.1700000762939,-0.0610504150390625,-1.09352111816406,0.026336669921875
186.0,40.4362607142333,-79.9955820758641,9.48999977111816,0.0006561279296875,-0.875228881835938,0.072784423828125
187.0,40.4442675272379,-79.9491092842817,13.539999961853,0.0031890869140625,-0.961380004882812,0.278778076171875
187.0,40.4287447454784,-79.9736607168615,11.1999998092651,-0.194839477539062,-1.01284790039062,-0.0310821533203125
187.0,40.4363232851405,-79.9956827425212,9.75,0.490325927734375,-1.673583984375,0.388381958007812
188.0,40.4442416690667,-79.9492381141334,13.4399995803833,0.049285888671875,-1.15362548828125,0.0715789794921875
188.0,40.4286527121816,-79.9736830127239,9.59000015258789,-0.254531860351562,-0.879745483398438,0.127395629882812
188.0,40.4363651108373,-79.9958813936263,10.8299999237061,-1.05508422851562,-0.80828857421875,-0.042388916015625
189.0,40.4442097759251,-79.9493809417635,13.3999996185303,-0.156234741210938,-0.889068603515625,0.122207641601562
189.0,40.4285791190718,-79.9737194740027,8.63000011444092,-0.179412841796875,-1.11354064941406,0.0774688720703125
189.0,40.4363742471118,-79.9959584233165,10.2700004577637,0.070770263671875,-0.91986083984375,0.0947723388671875
190.0,40.4441808164496,-79.9495260325074,13.2600002288818,-0.0680084228515625,-1.02713012695312,-0.08154296875
190.0,40.4285207391162,-79.9737701845169,7.57000017166138,-0.132308959960938,-0.989013671875,0.113479614257812
190.0,40.4364060564343,-79.9960404821485,9.60000038146973,0.0076141357421875,-0.860824584960938,0.314666748046875
191.0,40.4441428883378,-79.9496701174229,12.710000038147,-0.0765228271484375,-1.05467224121094,-0.054443359375
191.0,40.4284761054818,-79.9738244992494,6.34000015258789,-0.12847900390625,-0.983413696289062,0.100936889648438
191.0,40.4364508577068,-79.9961543922126,9.9399995803833,0.1678466796875,-1.04446411132812,0.18597412109375
192.0,40.4441160662476,-79.9497966841608,11.4700002670288,-0.208877563476562,-0.940139770507812,-0.1353759765625
192.0,40.4284509178628,-79.9738704320788,4.53000020980835,-0.220901489257812,-0.989578247070312,0.0321807861328125
192.0,40.4365074355532,-79.9962636084109,9.85999965667725,-0.097412109375,-0.911148071289062,0.17822265625
193.0,40.4440863943104,-79.9499120191484,10.1099996566772,-0.169097900390625,-1.02011108398438,-0.130630493164062
193.0,40.4284353694324,-79.9739082344621,2.89000010490417,-0.06884765625,-0.957382202148438,0.0807037353515625
193.0,40.4365792265538,-79.9964544643462,10.3100004196167,0.128997802734375,-1.10963439941406,0.0887451171875
194.0,40.444056219459,-79.9500015378743,7.82000017166138,-0.161956787109375,-0.912796020507812,-0.098358154296875
194.0,40.4284266941626,-79.973934302181,2.01999998092651,-0.0370025634765625,-1.00430297851562,0.0257110595703125
194.0,40.4366083117579,-79.9965442345291,8.89999961853027,-0.041168212890625,-0.865753173828125,0.420181274414062
195.0,40.4440374859054,-79.9500518292933,4.92999982833862,-0.090545654296875,-0.999832153320312,-0.115997314453125
195.0,40.4284238443155,-79.9739480485022,0.939999997615814,-0.00299072265625,-0.9918212890625,0.0830230712890625
195.0,40.4366520652924,-79.9966366869211,8.53999996185303,-0.0636138916015625,-0.973648071289062,0.235565185546875
196.0,40.4440226499368,-79.9500762206315,3.34999990463257,-0.057220458984375,-1.02426147460938,0.0030670166015625
196.0,40.428422503211,-79.9739541672915,0.349999994039536,0.0382537841796875,-0.982421875,0.13299560546875
196.0,40.4366383189712,-79.9966792669892,7.05000019073486,-0.136199951171875,-0.796798706054688,0.19097900390625
197.0,40.4440089036156,-79.9500836805254,2.20000004768372,0.048858642578125,-0.992507934570312,0.124099731445312
197.0,40.4284212459255,-79.9739584420621,0.419999986886978,-0.0254364013671875,-1.00408935546875,0.03936767578125
197.0,40.4366295598824,-79.9967154768109,5.6399998664856,0.061431884765625,-0.808639526367188,0.209793090820312
198.0,40.4440108733628,-79.9500903022289,1.32000005245209,0.062255859375,-0.969207763671875,0.190826416015625
198.0,40.4284212459255,-79.9739584420621,0.0,0.0196380615234375,-0.989349365234375,0.125015258789062
198.0,40.4366525682066,-79.9967707973719,5.48999977111816,0.089996337890625,-1.00387573242188,0.18206787109375
199.0,40.4440140165765,-79.9500888773053,0.589999973773956,-0.037811279296875,-0.955856323242188,0.315139770507812
199.0,40.4284194438163,-79.9739647284895,0.300000011920929,0.007598876953125,-0.992218017578125,0.0924072265625
199.0,40.4366736906026,-79.9968225975335,5.21000003814697,0.0390472412109375,-1.03274536132812,0.0534515380859375
200.0,40.4440000607077,-79.9501032103598,1.89999997615814,-0.171142578125,-0.937896728515625,0.257232666015625
200.0,40.4284194438163,-79.9739647284895,0.0,0.0056610107421875,-0.9996337890625,0.111557006835938
200.0,40.4366823239629,-79.9968471565097,3.36999988555908,-0.0094146728515625,-0.96539306640625,0.152694702148438
201.0,40.4440198419992,-79.950127601698,2.72000002861023,-0.160202026367188,-0.933456420898438,0.322967529296875
201.0,40.4284194438163,-79.9739647284895,0.0,0.0118408203125,-0.990982055664062,0.121200561523438
201.0,40.4366937652607,-79.996863668859,2.11999988555908,0.083892822265625,-0.968597412109375,0.246292114257812
202.0,40.4440592788537,-79.9501472153514,3.3199999332428,0.0914306640625,-0.988815307617188,0.39874267578125
202.0,40.4284194438163,-79.9739647284895,0.0,0.010467529296875,-0.988784790039062,0.119308471679688
202.0,40.4366977466647,-79.9968747329712,1.12000000476837,0.118911743164062,-1.02180480957031,0.407699584960938
203.0,40.4441046668593,-79.9501649849861,4.76000022888184,-0.224563598632812,-0.84912109375,0.343154907226562
203.0,40.4284194438163,-79.9739647284895,0.0,0.01483154296875,-0.990325927734375,0.119979858398438
203.0,40.4367051227395,-79.9968925864249,2.13000011444092,0.0623016357421875,-0.923049926757812,0.354385375976562
204.0,40.4441486299415,-79.9501814135163,5.80000019073486,0.201248168945312,-1.05892944335938,0.40411376953125
204.0,40.4284194438163,-79.9739647284895,0.0,0.015777587890625,-0.992965698242188,0.117950439453125
204.0,40.4367193300654,-79.9969143793732,3.10999989509583,-0.0543212890625,-0.930282592773438,0.26739501953125
205.0,40.4442107817535,-79.9502037093788,7.13000011444092,0.0959014892578125,-1.08541870117188,0.102981567382812
205.0,40.4284194438163,-79.9739647284895,0.0,0.015045166015625,-0.993133544921875,0.12139892578125
205.0,40.436736764424,-79.9969333224743,2.86999988555908,-0.0794219970703125,-1.01751708984375,0.2230224609375
206.0,40.4442794295405,-79.950220221728,7.96999979019165,-0.246994018554688,-0.96771240234375,0.078704833984375
206.0,40.4284194438163,-79.9739647284895,0.0,0.022216796875,-0.989776611328125,0.1468505859375
206.0,40.4367550788824,-79.9969489128142,2.23000001907349,0.218658447265625,-0.907455444335938,0.472335815429688
207.0,40.4443532741074,-79.9502371531724,8.27999973297119,-0.0649566650390625,-0.835617065429688,0.229080200195312
207.0,40.428419821002,-79.9739695899933,0.230000004172325,-0.0029754638671875,-0.987991333007812,0.114089965820312
207.0,40.4367849184577,-79.9969621562213,3.08999991416931,0.259613037109375,-0.91900634765625,0.330673217773438
208.0,40.444434075654,-79.9502553419023,8.77000045776367,0.38330078125,-1.13850402832031,0.370101928710938
208.0,40.4284189828117,-79.9739726912975,0.159999996423721,0.027984619140625,-0.99237060546875,0.126327514648438
208.0,40.4368277918924,-79.9969810993224,4.53999996185303,0.25836181640625,-0.849105834960938,0.395217895507812
209.0,40.44452011589,-79.9502641429007,9.3100004196167,-0.138168334960938,-0.859298706054688,0.150283813476562
209.0,40.4284189828117,-79.9739726912975,0.0,0.004486083984375,-0.988250732421875,0.0884552001953125
209.0,40.4368842440103,-79.9970343244076,6.01000022888184,0.23199462890625,-0.911148071289062,0.309219360351562
210.0,40.4446093412493,-79.950262382701,9.09000015258789,-0.106689453125,-0.994705200195312,-0.0113067626953125
210.0,40.4284189828117,-79.9739726912975,0.0,0.008880615234375,-0.988494873046875,0.129501342773438
210.0,40.4369194899131,-79.9971038942039,5.17999982833862,0.004180908203125,-0.995819091796875,0.400924682617188
211.0,40.444693160281,-79.9502679147571,8.47999954223633,-0.100830078125,-0.810745239257812,-0.0082550048828125
211.0,40.4284189828117,-79.9739726912975,0.0,0.02197265625,-0.986679077148438,0.113143920898438
211.0,40.436944426075,-79.9972288683802,-1.0,0.0468597412109375,-1.05606079101562,0.340103149414062
212.0,40.4447652865578,-79.950278308317,7.03000020980835,0.0644378662109375,-0.90728759765625,0.168991088867188
212.0,40.4447652865578,-79.950278308317,7.03000020980835,0.0644378662109375,-0.90728759765625,0.168991088867188
212.0,40.4284189828117,-79.9739726912975,0.0,0.0078277587890625,-0.984649658203125,0.134780883789062
212.0,40.4284189828117,-79.9739726912975,0.0,0.0078277587890625,-0.984649658203125,0.134780883789062
212.0,40.4369578790296,-79.9973773957044,9.22999954223633,-0.0332794189453125,-0.690505981445312,0.269454956054688
212.0,40.4369578790296,-79.9973773957044,9.22999954223633,-0.0332794189453125,-0.690505981445312,0.269454956054688
213.0,40.4448250076179,-79.9502787274122,6.1399998664856,-0.0006866455078125,-1.02055358886719,0.0521697998046875
213.0,40.4284189828117,-79.9739726912975,0.0,0.026123046875,-0.989593505859375,0.109222412109375
213.0,40.4369867127765,-79.9975167867541,12.6300001144409,-0.154708862304688,-1.10282897949219,0.26544189453125
214.0,40.4448851058636,-79.9502907135337,5.46999979019165,-0.0441436767578125,-0.973907470703125,-0.0406951904296875
214.0,40.4284189828117,-79.9739726912975,0.0,0.0136871337890625,-0.984375,0.1114501953125
214.0,40.4370298376683,-79.9976528250426,12.5299997329712,0.0863800048828125,-0.995071411132812,-0.0530853271484375
215.0,40.444932254069,-79.9502928928285,4.5,-0.0937652587890625,-1.03187561035156,-0.0624237060546875
215.0,40.4284189828117,-79.9739726912975,0.0,0.0176239013671875,-0.991302490234375,0.101119995117188
215.0,40.437067179047,-79.9977818225324,11.5100002288818,-0.203521728515625,-1.11056518554688,-0.016632080078125
216.0,40.4449665779625,-79.9502982572466,2.30999994277954,0.0875396728515625,-0.975372314453125,0.15277099609375
216.0,40.4284189828117,-79.9739726912975,0.0,0.000244140625,-0.992462158203125,0.122360229492188
216.0,40.4370905645568,-79.9978936371207,9.90999984741211,0.319961547851562,-1.12075805664062,0.0588531494140625
217.0,40.444981246293,-79.9502988439798,1.07000005245209,0.103836059570312,-0.975265502929688,0.258331298828125
217.0,40.4284189828117,-79.9739726912975,0.0,0.01177978515625,-0.999588012695312,0.107131958007812
217.0,40.4371087113772,-79.9979847484082,7.73999977111816,-0.181488037109375,-0.998458862304688,0.0467529296875
218.0,40.4450014885892,-79.9502996821701,2.20000004768372,0.089691162109375,-0.923248291015625,0.334701538085938
218.0,40.4284189828117,-79.9739726912975,0.0,0.0320587158203125,-0.9771728515625,0.124649047851562
218.0,40.4371311748777,-79.9980516359955,6.3899998664856,-0.0537567138671875,-1.01814270019531,0.0512237548828125
219.0,40.4450295679648,-79.9502842594683,3.71000003814697,0.134765625,-1.15176391601562,0.169723510742188
219.0,40.4284189828117,-79.9739726912975,0.0,0.007049560546875,-0.989456176757812,0.131820678710938
219.0,40.4371484835077,-79.9980896898359,3.64000010490417,-0.0747528076171875,-1.02581787109375,0.132827758789062
220.0,40.445065903515,-79.9502612092345,4.42000007629395,0.0644073486328125,-1.01007080078125,0.27655029296875
220.0,40.4284180608023,-79.9739779718965,0.430000007152557,0.0408172607421875,-0.979339599609375,0.131439208984375
220.0,40.4371577036012,-79.9981141649932,1.74000000953674,-0.013946533203125,-0.984619140625,0.143463134765625
221.0,40.445101400875,-79.9502252508699,4.98999977111816,0.234817504882812,-1.10588073730469,0.0836639404296875
221.0,40.4284170968835,-79.9739858508855,0.75,0.018707275390625,-0.9842529296875,0.150543212890625
221.0,40.4371600086246,-79.9981196132302,0.25,0.0365753173828125,-0.957870483398438,0.267196655273438
222.0,40.4451529495795,-79.9502003566175,5.76000022888184,-0.02899169921875,-0.999099731445312,0.198135375976562
222.0,40.4284150014077,-79.9739966635406,0.990000009536743,0.01904296875,-0.973831176757812,0.135452270507812
222.0,40.4371569492299,-79.9981205352396,0.46000000834465,0.0124359130859375,-0.984848022460938,0.220352172851562
223.0,40.445209946521,-79.9501579441875,6.42999982833862,-0.0199737548828125,-1.04005432128906,0.184585571289062
223.0,40.4284142889459,-79.9740081467479,0.959999978542328,0.00457763671875,-1.00703430175781,0.0618896484375
223.0,40.4371543927495,-79.9981198646873,0.519999980926514,-0.001861572265625,-0.961746215820312,0.222503662109375
224.0,40.4452684102957,-79.9501002766936,7.11999988555908,-0.0003662109375,-0.893692016601562,0.19976806640625
224.0,40.4284137441222,-79.9740166962892,0.589999973773956,-0.0128631591796875,-0.996871948242188,0.0772247314453125
224.0,40.4371566139538,-79.9981288333237,0.5,-0.0478057861328125,-0.977264404296875,0.12054443359375
225.0,40.4453484993805,-79.9500292819738,7.3600001335144,-0.0550994873046875,-0.917984008789062,0.0710906982421875
225.0,40.4284139536698,-79.9740203843266,0.150000005960464,0.04901123046875,-0.974212646484375,0.169769287109375
225.0,40.4371618526433,-79.9981369637698,0.300000011920929,0.0076904296875,-0.969772338867188,0.240234375
226.0,40.445413291492,-79.9500012025982,7.15999984741211,-0.0328369140625,-0.917037963867188,0.07965087890625
226.0,40.4284128221128,-79.9740217254311,0.189999997615814,0.0496063232421875,-0.988754272460938,0.128280639648438
226.0,40.4371618526433,-79.9981369637698,0.0,0.0065155029296875,-0.97161865234375,0.236724853515625
227.0,40.4455063306172,-79.9499671720713,7.63000011444092,0.155364990234375,-1.02804565429688,-0.0710296630859375
227.0,40.4284127802033,-79.9740247429162,0.379999995231628,0.028533935546875,-0.990081787109375,0.132904052734375
227.0,40.4371618526433,-79.9981369637698,0.0,0.0077972412109375,-0.9683837890625,0.246337890625
228.0,40.4455301771317,-79.949953174293,6.84999990463257,-0.212173461914062,-0.731643676757812,0.0471954345703125
228.0,40.4284128221128,-79.9740312808007,0.610000014305115,0.01544189453125,-0.994110107421875,0.151229858398438
228.0,40.4371618526433,-79.9981369637698,0.0,0.01129150390625,-0.974838256835938,0.2333984375
229.0,40.445566512682,-79.9502052181214,5.90999984741211,0.109664916992188,-1.12261962890625,0.175003051757812
229.0,40.4284122353796,-79.9740392436087,0.759999990463257,0.0525665283203125,-1.01011657714844,0.137680053710938
229.0,40.4371618526433,-79.9981369637698,0.0,0.040557861328125,-0.955780029296875,0.292327880859375
230.0,40.4456257727374,-79.9502209760993,5.69999980926514,0.102767944335938,-0.865951538085938,0.2088623046875
230.0,40.4284111038227,-79.9740513135493,1.12999999523163,0.024169921875,-0.96234130859375,0.265396118164062
230.0,40.4371618526433,-79.9981369637698,0.0,0.003753662109375,-0.966140747070312,0.22784423828125
231.0,40.4456820991267,-79.9502378237247,5.98999977111816,-0.106338500976562,-0.835357666015625,0.109542846679688
231.0,40.4284107685466,-79.9740729388594,2.11999988555908,0.0542449951171875,-0.927871704101562,0.207565307617188
231.0,40.4371711146463,-79.9981304258853,0.270000010728836,0.009918212890625,-0.98553466796875,0.229324340820312
232.0,40.4457381740589,-79.9502594490349,6.1100001335144,0.078857421875,-1.02227783203125,0.285415649414062
232.0,40.4284094693516,-79.9741052091866,3.0699999332428,0.0463104248046875,-0.980850219726562,0.201156616210938
232.0,40.4371711146463,-79.9981304258853,0.0,0.0045928955078125,-0.967193603515625,0.24359130859375
233.0,40.4457935365294,-79.9502637238055,6.28000020980835,0.0886383056640625,-0.924957275390625,0.230606079101562
233.0,40.4284108523656,-79.9741546624154,4.32000017166138,-0.0823822021484375,-0.933944702148438,0.338043212890625
233.0,40.4371711146463,-79.9981304258853,0.0,0.0116729736328125,-0.968963623046875,0.242279052734375
234.0,40.4458538024132,-79.9502632208913,6.61999988555908,0.106521606445312,-1.04670715332031,0.187545776367188
234.0,40.4284148337696,-79.9742114917189,5.23999977111816,0.11614990234375,-1.03411865234375,0.344329833984375
234.0,40.4371711146463,-79.9981304258853,0.0,0.0089263916015625,-0.970550537109375,0.2330322265625
235.0,40.445919516534,-79.9502554257214,7.51000022888184,-0.001434326171875,-0.9034423828125,0.0741424560546875
235.0,40.428417222612,-79.9742798042297,6.15000009536743,0.0269012451171875,-0.9761962890625,0.192718505859375
235.0,40.4371711146463,-79.9981304258853,0.0,0.0091705322265625,-0.971176147460938,0.228790283203125
236.0,40.4459903855253,-79.9502490554749,8.17000007629395,-0.0538482666015625,-0.958328247070312,0.140792846679688
236.0,40.4283956815881,-79.9743560524445,6.19999980926514,0.103073120117188,-0.969085693359375,0.271636962890625
236.0,40.4371711146463,-79.9981304258853,0.0,0.004241943359375,-0.974319458007812,0.24725341796875
237.0,40.4460659064729,-79.9502576050162,7.92999982833862,0.105621337890625,-0.974151611328125,0.043670654296875
237.0,40.4283994814005,-79.974434136518,6.76999998092651,-0.173980712890625,-1.00392150878906,0.0395355224609375
237.0,40.4371711146463,-79.9981304258853,0.0,0.0077056884765625,-0.96820068359375,0.24365234375
238.0,40.4461523658041,-79.9502652325481,7.96000003814697,0.075927734375,-1.08500671386719,0.14007568359375
238.0,40.4284035958694,-79.9745186866131,7.86999988555908,0.148147583007812,-1.20346069335938,0.3309326171875
238.0,40.4371711146463,-79.9981304258853,0.0,0.0105133056640625,-0.96826171875,0.236846923828125
239.0,40.4462349694599,-79.9502744526416,8.44999980926514,-0.012939453125,-0.742721557617188,0.425521850585938
239.0,40.4284082508876,-79.9746143447002,7.57999992370605,0.1143798828125,-1.06221008300781,0.013458251953125
239.0,40.4371711146463,-79.9981304258853,0.0,0.005889892578125,-0.972869873046875,0.23529052734375
240.0,40.4463195009534,-79.9502898753434,9.18000030517578,-0.0575103759765625,-0.8209228515625,0.280975341796875
240.0,40.4284091375248,-79.9746325646098,8.14999961853027,0.104598999023438,-1.10342407226562,0.153213500976562
240.0,40.4371711146463,-79.9981304258853,0.0,0.0063934326171875,-0.968292236328125,0.232086181640625
241.0,40.4463965306435,-79.9502976705133,9.47000026702881,-0.0927276611328125,-1.10093688964844,-0.006683349609375
241.0,40.4284177188533,-79.9748062407163,8.64000034332275,0.439346313476562,-1.34330749511719,0.32940673828125
241.0,40.4371711146463,-79.9981304258853,0.0,0.005340576171875,-0.97088623046875,0.238632202148438
242.0,40.4464860493694,-79.9503121712058,9.35999965667725,-0.250595092773438,-1.01173400878906,0.0316314697265625
242.0,40.4284227385669,-79.9749077944354,8.60000038146973,-0.257827758789062,-0.48394775390625,0.25244140625
242.0,40.4371711146463,-79.9981304258853,0.0,0.010833740234375,-0.972091674804688,0.238174438476562
243.0,40.4465284617994,-79.9503321201354,7.15000009536743,-0.094818115234375,-0.981460571289062,-0.05810546875
243.0,40.4284281335991,-79.9750169412151,9.14999961853027,0.357147216796875,-1.10948181152344,-0.0269317626953125
243.0,40.4371711146463,-79.9981304258853,0.0,0.00372314453125,-0.969573974609375,0.232925415039062
244.0,40.4465703294058,-79.9503608700632,4.6100001335144,-0.0901641845703125,-1.00140380859375,-0.0047760009765625
244.0,40.4284334542078,-79.975124582334,9.22000026702881,-0.078826904296875,-0.921676635742188,0.15765380859375
244.0,40.4371711146463,-79.9981304258853,0.0,0.0063629150390625,-0.97003173828125,0.234451293945312
245.0,40.4465923319016,-79.9503838364779,2.95000004768372,-0.0079345703125,-0.990081787109375,0.0986785888671875
245.0,40.4284386574322,-79.9752298486558,8.72999954223633,-0.259170532226562,-0.893997192382812,0.211883544921875
245.0,40.4371711146463,-79.9981304258853,0.0,0.0058441162109375,-0.972488403320312,0.237075805664062
246.0,40.4465923319016,-79.9503838364779,0.0,0.0018463134765625,-0.991180419921875,0.16778564453125
246.0,40.4284435004057,-79.9753278267467,8.01000022888184,-0.04705810546875,-0.95513916015625,0.0579681396484375
246.0,40.4371711146463,-79.9981304258853,0.0,0.02532958984375,-0.965774536132812,0.260467529296875
247.0,40.4465819802512,-79.9503895361721,0.170000001788139,-0.007476806640625,-0.983749389648438,0.1641845703125
247.0,40.4284480363017,-79.9754199786326,7.59000015258789,-0.27545166015625,-0.909957885742188,0.0601806640625
247.0,40.4371711146463,-79.9981304258853,0.0,0.0330810546875,-0.963516235351562,0.25244140625
248.0,40.4465782922138,-79.9503802322596,0.490000009536743,0.000701904296875,-0.991622924804688,0.169967651367188
248.0,40.4284522510637,-79.9755057987891,7.17000007629395,0.0121612548828125,-1.08122253417969,-0.0211639404296875
248.0,40.4371784488116,-79.998150626272,0.219999998807907,0.0190582275390625,-0.968414306640625,0.254241943359375
249.0,40.4465782922138,-79.9503802322596,0.0,0.0167083740234375,-0.985443115234375,0.15606689453125
249.0,40.4284562249725,-79.9755867147422,6.30999994277954,-0.0660247802734375,-0.971420288085938,-0.0196533203125
249.0,40.4371786164496,-79.9981549848616,0.449999988079071,0.0199737548828125,-0.923934936523438,0.363800048828125
250.0,40.4465782922138,-79.9503802322596,0.0,0.001922607421875,-0.989273071289062,0.118392944335938
250.0,40.4284588702882,-79.9756405781415,4.48999977111816,-0.137664794921875,-1.02066040039062,-0.146881103515625
250.0,40.4371815501158,-79.9981633667648,0.800000011920929,0.018646240234375,-0.879791259765625,0.37640380859375
251.0,40.4465782922138,-79.9503802322596,0.0,-0.003875732421875,-0.995941162109375,0.126998901367188
251.0,40.4284612378308,-79.9756863428997,2.98000001907349,0.0574951171875,-1.09175109863281,0.0734710693359375
251.0,40.4371942486991,-79.9981786218286,2.20000004768372,-0.113327026367188,-0.895919799804688,0.291580200195312
252.0,40.4465782922138,-79.9503802322596,0.0,0.0282135009765625,-0.9981689453125,0.157119750976562
252.0,40.4284627652687,-79.9757154382488,2.03999996185303,-0.095001220703125,-0.965652465820312,-0.00640869140625
252.0,40.4372162092854,-79.9981952179968,3.0,-0.247955322265625,-0.744384765625,0.4034423828125
253.0,40.4465782922138,-79.9503802322596,0.0,0.0037384033203125,-0.991561889648438,0.14410400390625
253.0,40.428463622581,-79.9757317687346,1.21000003814697,-0.0640106201171875,-1.01124572753906,-0.00579833984375
253.0,40.437245504037,-79.9981994089484,3.21000003814697,0.04559326171875,-1.04194641113281,0.464828491210938
254.0,40.4465782922138,-79.9503802322596,0.0,0.0029449462890625,-0.99176025390625,0.140945434570312
254.0,40.4284636370093,-79.9757320435718,0.0,0.0118255615234375,-1.0018310546875,0.107452392578125
254.0,40.4372833902393,-79.9981838186085,4.34999990463257,0.0841827392578125,-1.23365783691406,0.124923706054688
255.0,40.4465782922138,-79.9503802322596,0.0,0.002288818359375,-0.990249633789062,0.145217895507812
255.0,40.4284636998615,-79.9757332408105,0.0,0.021087646484375,-0.991058349609375,0.114761352539062
255.0,40.4373232880984,-79.9981680606306,5.09999990463257,-0.005279541015625,-0.899215698242188,0.261199951171875
256.0,40.4465782922138,-79.9503802322596,0.0,0.0042877197265625,-0.989028930664062,0.141067504882812
256.0,40.4284637019611,-79.9757332808043,0.0,0.025909423828125,-0.999374389648438,0.119125366210938
256.0,40.4373627668623,-79.9981469382346,5.15999984741211,-0.05462646484375,-1.01698303222656,0.188262939453125
257.0,40.4465782922138,-79.9503802322596,0.0,0.00390625,-0.990707397460938,0.139755249023438
257.0,40.4284637040798,-79.9757333211618,0.0,0.020965576171875,-0.993453979492188,0.113967895507812
257.0,40.437406771854,-79.9981246423721,5.19000005722046,0.164260864257812,-0.921463012695312,0.14434814453125
258.0,40.4465782922138,-79.9503802322596,0.0,0.0031585693359375,-0.988372802734375,0.1431884765625
258.0,40.428463706197,-79.9757333614916,0.0,0.015411376953125,-0.992431640625,0.115921020507812
258.0,40.4374444065992,-79.9981041905284,4.92999982833862,0.0770111083984375,-1.10374450683594,0.199569702148438
259.0,40.4465782922138,-79.9503802322596,0.0,0.0015411376953125,-0.990097045898438,0.144790649414062
259.0,40.4284637083153,-79.9757334018424,0.0,0.0228118896484375,-0.994003295898438,0.114105224609375
259.0,40.4374743299935,-79.9980921205878,3.79999995231628,-0.038909912109375,-0.9791259765625,0.108261108398438
260.0,40.4465782922138,-79.9503802322596,0.0,0.00341796875,-0.99078369140625,0.142715454101562
260.0,40.4284636559295,-79.9757324039727,0.0,0.025177001953125,-0.994125366210938,0.113739013671875
260.0,40.4374874895815,-79.9980836548656,1.94000005722046,0.0355377197265625,-0.9708251953125,0.258407592773438
261.0,40.4465782922138,-79.9503802322596,0.0,0.0040435791015625,-0.990402221679688,0.14044189453125
261.0,40.4284636806873,-79.9757328755702,0.0,0.0223388671875,-0.993392944335938,0.1146240234375
261.0,40.4374908004333,-79.9980803021044,0.899999976158142,0.0398712158203125,-0.970870971679688,0.234405517578125
262.0,40.4465782922138,-79.9503802322596,0.0,-0.0104522705078125,-0.990936279296875,0.137985229492188
262.0,40.4284635809788,-79.9757309762759,0.0,0.0214691162109375,-0.993270874023438,0.112106323242188
262.0,40.4374857712914,-79.998076614067,0.529999971389771,0.0428924560546875,-0.965713500976562,0.258987426757812
263.0,40.4465782922138,-79.9503802322596,0.0,0.00836181640625,-0.99249267578125,0.143722534179688
263.0,40.4284636111456,-79.9757315509081,0.0,0.0173492431640625,-0.992660522460938,0.116195678710938
263.0,40.4374831309919,-79.9980809726566,0.170000001788139,0.04083251953125,-0.963851928710938,0.256271362304688
264.0,40.4465782922138,-79.9503802322596,0.0,0.0005645751953125,-0.986740112304688,0.14447021484375
264.0,40.4284636562414,-79.9757324099136,0.0,0.024078369140625,-0.993560791015625,0.112457275390625
264.0,40.437480784059,-79.9980798830092,0.529999971389771,0.0396881103515625,-0.964935302734375,0.2589111328125
265.0,40.4465782922138,-79.9503802322596,0.0,0.001129150390625,-0.989486694335938,0.14239501953125
265.0,40.4284636583581,-79.9757324502338,0.0,0.01715087890625,-0.990875244140625,0.11126708984375
265.0,40.4374793172259,-79.9980804697424,0.230000004172325,0.0404205322265625,-0.962234497070312,0.257049560546875
266.0,40.4465782922138,-79.9503802322596,0.0,-0.0075225830078125,-0.995330810546875,0.14031982421875
266.0,40.4284635833492,-79.975731021429,0.0,0.0222625732421875,-0.994293212890625,0.110748291015625
266.0,40.4374777665738,-79.9980823137611,0.209999993443489,0.042999267578125,-0.965438842773438,0.256546020507812
267.0,40.4466349957887,-79.9504413363337,0.0,0.0051727294921875,-0.98590087890625,0.14251708984375
267.0,40.4284636634099,-79.9757325464627,0.0,0.0192108154296875,-0.993621826171875,0.11163330078125
267.0,40.4374777665738,-79.9980823137611,0.0,0.040191650390625,-0.9654541015625,0.262893676757812
268.0,40.4466349957887,-79.9504413363337,0.0,0.0021514892578125,-0.990493774414062,0.14776611328125
268.0,40.428463665528,-79.9757325868102,0.0,0.0196685791015625,-0.992111206054688,0.11553955078125
268.0,40.4374777665738,-79.9980823137611,0.0,0.044921875,-0.964126586914062,0.2623291015625
269.0,40.4466349957887,-79.9504413363337,0.0,0.00787353515625,-0.994033813476562,0.1497802734375
269.0,40.4284636676462,-79.9757326271582,0.0,0.019989013671875,-0.990951538085938,0.109298706054688
269.0,40.4374777665738,-79.9980823137611,0.0,0.0423126220703125,-0.962646484375,0.253173828125
270.0,40.4466349957887,-79.9504413363337,0.0,0.012939453125,-0.991561889648438,0.162628173828125
270.0,40.4284638108508,-79.9757353549867,0.0,0.0173797607421875,-0.986221313476562,0.100540161132812
270.0,40.4374777665738,-79.9980823137611,0.0,0.0398406982421875,-0.968536376953125,0.25579833984375
271.0,40.4466349957887,-79.9504413363337,0.0,0.080352783203125,-0.97894287109375,0.228225708007812
271.0,40.4284636134377,-79.975731594569,0.0,0.017608642578125,-0.992340087890625,0.114913940429688
271.0,40.4374777665738,-79.9980823137611,0.0,0.0528411865234375,-0.968673706054688,0.261962890625
272.0,40.4466432938729,-79.9504468683898,0.589999973773956,0.108108520507812,-1.03953552246094,0.2449951171875
272.0,40.4284636603744,-79.9757324886422,0.0,0.024566650390625,-0.992263793945312,0.113967895507812
272.0,40.4374777665738,-79.9980823137611,0.0,0.029876708984375,-0.9613037109375,0.251022338867188
273.0,40.446654106528,-79.9504511431604,1.19000005722046,0.1295166015625,-1.05274963378906,0.13250732421875
273.0,40.4284636624895,-79.9757325289306,0.0,0.0270538330078125,-0.992752075195312,0.115463256835938
273.0,40.4374832986299,-79.9980831519514,0.189999997615814,0.019287109375,-0.967864990234375,0.228240966796875
274.0,40.4466647934545,-79.9504568428546,1.1599999666214,0.121917724609375,-0.984054565429688,0.131805419921875
274.0,40.4284636646041,-79.9757325692111,0.0,0.0198211669921875,-0.995880126953125,0.114166259765625
274.0,40.4374832986299,-79.9980831519514,0.0,0.0438079833984375,-0.964614868164062,0.260360717773438
275.0,40.4466927890111,-79.9504735228419,2.99000000953674,0.05450439453125,-0.976654052734375,0.0349578857421875
275.0,40.4284637150894,-79.9757335308791,0.0,0.0446929931640625,-0.992828369140625,0.13616943359375
275.0,40.4374832986299,-79.9980831519514,0.0,0.0402679443359375,-0.962799072265625,0.25787353515625
276.0,40.4467274062712,-79.9505047035217,3.92000007629395,-0.0928955078125,-0.991607666015625,-0.0378570556640625
276.0,40.4284642541637,-79.975743799418,0.409999996423721,0.002777099609375,-1.007080078125,0.09295654296875
276.0,40.4374832986299,-79.9980831519514,0.0,0.0428466796875,-0.964645385742188,0.25848388671875
277.0,40.4467588384081,-79.9505440146475,3.57999992370605,-0.054443359375,-1.00979614257812,0.0345306396484375
277.0,40.4284644305842,-79.9757471599579,0.219999998807907,0.04010009765625,-0.988967895507812,0.137130737304688
277.0,40.4374832986299,-79.9980831519514,0.0,0.04150390625,-0.965484619140625,0.256790161132812
278.0,40.4467727104579,-79.9505747762322,1.8400000333786,0.0191497802734375,-0.986282348632812,0.150985717773438
278.0,40.4284644040789,-79.9757466550719,0.0,0.0376739501953125,-0.982162475585938,0.1529541015625
278.0,40.4374832986299,-79.9980831519514,0.0,0.040679931640625,-0.964492797851562,0.264633178710938
279.0,40.4467763984953,-79.950590198934,0.509999990463257,0.0077972412109375,-0.983184814453125,0.144287109375
279.0,40.428464524314,-79.9757489453673,0.409999996423721,0.0489349365234375,-0.978927612304688,0.176040649414062
279.0,40.4374832986299,-79.9980831519514,0.0,0.086578369140625,-0.926040649414062,0.362686157226562
280.0,40.4467789549757,-79.9506031070649,0.469999998807907,-0.0028228759765625,-0.9803466796875,0.12896728515625
280.0,40.4284650212989,-79.975758412168,1.02999997138977,0.110366821289062,-0.9757080078125,0.190765380859375
280.0,40.4374860227485,-79.9980865047127,0.850000023841858,0.0926361083984375,-0.857086181640625,0.40228271484375
281.0,40.4467817629133,-79.9506156799197,0.509999990463257,0.0025634765625,-0.988754272460938,0.127120971679688
281.0,40.4284657596325,-79.9757724762896,1.45000004768372,0.0947113037109375,-0.979949951171875,0.265090942382812
281.0,40.4374981765081,-79.9980772008002,2.10999989509583,0.190704345703125,-1.00820922851562,0.35247802734375
282.0,40.4467847803984,-79.9506276660412,0.469999998807907,0.0708160400390625,-0.990890502929688,0.192520141601562
282.0,40.4284668572488,-79.9757933841981,2.08999991416931,0.220901489257812,-1.03126525878906,0.294418334960938
282.0,40.4375225259368,-79.9980633706599,3.19000005722046,0.0969390869140625,-0.995620727539062,0.265960693359375
283.0,40.4467885522549,-79.9506401550769,0.529999971389771,0.09814453125,-0.983871459960938,0.167251586914062
283.0,40.4284687993845,-79.9758303789065,3.75,0.168838500976562,-1.007080078125,0.480484008789062
283.0,40.4375560116399,-79.9980674777925,3.79999995231628,0.099578857421875,-0.97161865234375,0.231887817382812
284.0,40.4467935813968,-79.9506585114449,1.14999997615814,0.097137451171875,-0.934371948242188,0.17498779296875
284.0,40.4284722237509,-79.9758956078383,6.09999990463257,0.352554321289062,-0.986312866210938,0.163482666015625
284.0,40.4375894135241,-79.9980949704349,3.97000002861023,0.262603759765625,-1.14405822753906,0.244430541992188
285.0,40.4467994068195,-79.9506886862963,2.04999995231628,0.0823516845703125,-0.966094970703125,0.16998291015625
285.0,40.4284771075686,-79.97598863708,8.11999988555908,0.09429931640625,-0.946090698242188,0.151443481445312
285.0,40.4376225220416,-79.9981422443688,4.15999984741211,0.152420043945312,-1.02760314941406,0.046600341796875
286.0,40.4468034720425,-79.9507322721928,3.02999997138977,0.06683349609375,-0.983154296875,0.154861450195312
286.0,40.4284823676649,-79.9760888338515,9.02000045776367,-0.111434936523438,-0.645233154296875,0.192886352539062
286.0,40.4376449855421,-79.9982003309578,4.5,0.0356597900390625,-1.03825378417969,0.160812377929688
287.0,40.4468031367664,-79.9507973995804,4.01999998092651,0.08624267578125,-0.990386962890625,0.164764404296875
287.0,40.4284878331084,-79.9761929421733,8.72000026702881,-0.0467681884765625,-0.96075439453125,0.0639495849609375
287.0,40.4376746574793,-79.9982709904015,5.03999996185303,-0.0408172607421875,-1.00395202636719,0.122467041015625
288.0,40.4467983590816,-79.950851714313,4.75,0.05999755859375,-0.941177368164062,0.09405517578125
288.0,40.4284918911285,-79.9762702412367,8.32999992370605,0.0315093994140625,-1.09490966796875,0.294586181640625
288.0,40.4376929719378,-79.9983228743821,3.83999991416931,-0.1094970703125,-1.10221862792969,-0.0411834716796875
289.0,40.4467978980769,-79.9509123992919,5.48000001907349,0.0683135986328125,-0.9337158203125,0.087066650390625
289.0,40.4285007432734,-79.9763934515043,8.03999996185303,0.37725830078125,-0.902603149414062,-0.307144165039062
289.0,40.4377056286116,-79.9983718246967,2.6800000667572,0.0828704833984375,-0.992324829101562,0.171493530273438
290.0,40.4467943776776,-79.9509773590415,5.88000011444092,0.082122802734375,-1.03829956054688,0.102188110351562
290.0,40.4285074982936,-79.9764868402261,7.69000005722046,-0.123443603515625,-0.8135986328125,0.216323852539062
290.0,40.4377066763494,-79.9983947911114,1.80999994277954,0.073089599609375,-0.97308349609375,0.231948852539062
291.0,40.4467958864201,-79.9510517903417,5.86999988555908,0.0159454345703125,-0.98046875,0.128646850585938
291.0,40.4285144020108,-79.9765822846962,8.02999973297119,0.196731567382812,-1.06106567382812,0.0186004638671875
291.0,40.4377023596693,-79.9984201044589,2.07999992370605,0.140869140625,-0.955322265625,0.134872436523438
292.0,40.4467900609974,-79.9511211924999,5.75,0.0963287353515625,-0.9837646484375,0.122833251953125
292.0,40.4285215006357,-79.9766804237827,8.25,-0.0958251953125,-0.982589721679688,0.179367065429688
292.0,40.4376915470142,-79.9984348566085,1.76999998092651,0.264083862304688,-0.892593383789062,0.403289794921875
293.0,40.4467831459273,-79.9511898402869,5.5,0.02996826171875,-0.996337890625,0.1103515625
293.0,40.4285283949932,-79.9767757388553,8.15999984741211,0.179611206054688,-0.954055786132812,0.208999633789062
293.0,40.4376790579785,-79.9984488543868,1.77999997138977,-0.0062103271484375,-0.928451538085938,0.229248046875
294.0,40.4467897676308,-79.9512620922923,5.78999996185303,0.012908935546875,-0.94012451171875,0.1494140625
294.0,40.4285353633388,-79.9768720632735,8.14000034332275,-0.0318603515625,-1.14915466308594,-0.0360870361328125
294.0,40.4376564268399,-79.9984658696502,1.91999995708466,0.2135009765625,-0.96044921875,0.11700439453125
295.0,40.4467868339647,-79.9513324164599,5.71999979019165,0.0877838134765625,-0.97991943359375,0.0513916015625
295.0,40.4285421016656,-79.9769650099494,7.98000001907349,-0.019012451171875,-1.11129760742188,0.3045654296875
295.0,40.4376258328934,-79.9984865729511,2.53999996185303,0.134170532226562,-0.986892700195312,0.1201171875
296.0,40.4467932461206,-79.9513993040472,5.21000003814697,0.038421630859375,-1.01571655273438,0.102752685546875
296.0,40.4285485039392,-79.9770533211979,7.69000005722046,0.0092926025390625,-1.06466674804688,-0.0274505615234375
296.0,40.4375948617611,-79.9984710664302,3.48000001907349,0.227890014648438,-0.982833862304688,0.112945556640625
297.0,40.4467846546699,-79.9514672812819,5.40999984741211,-0.00335693359375,-1.00738525390625,0.01666259765625
297.0,40.4285551158353,-79.9771445239225,7.6100001335144,0.0217437744140625,-0.929458618164062,0.120925903320312
297.0,40.4375671595712,-79.998444160521,3.92000007629395,0.157363891601562,-1.03347778320312,0.0976104736328125
298.0,40.4467758536715,-79.9515312352031,5.21999979019165,-0.0104522705078125,-1.02940368652344,0.040618896484375
298.0,40.4285618233205,-79.9772362082946,7.59999990463257,0.011138916015625,-0.98760986328125,0.188095092773438
298.0,40.4375565983732,-79.9983968865871,4.13000011444092,-0.0193023681640625,-0.9844970703125,0.0381011962890625
299.0,40.4467550665517,-79.9515801016986,5.01000022888184,-0.0479888916015625,-1.02424621582031,0.0188751220703125
299.0,40.4285685077219,-79.9773260687493,7.90000009536743,-0.105865478515625,-1.14602661132812,-0.130294799804688
299.0,40.437558777668,-79.9983702321351,2.69000005722046,-0.056182861328125,-0.969741821289062,0.207870483398438
300.0,40.4467448825393,-79.9516090192645,3.78999996185303,-0.05413818359375,-1.00076293945312,0.0168304443359375
300.0,40.4285764700141,-79.9774331082812,8.5,0.0965728759765625,-1.07778930664062,0.0270233154296875
300.0,40.4375659441952,-79.9983667955548,0.740000009536743,-0.0223541259765625,-0.969451904296875,0.240982055664062
301.0,40.4467405239497,-79.9516491685807,2.5699999332428,-0.06829833984375,-0.99462890625,0.0132293701171875
301.0,40.4285837559066,-79.9775310547635,8.71000003814697,0.192596435546875,-0.46282958984375,-0.0367431640625
301.0,40.4375691712279,-79.998359587118,0.159999996423721,0.00244140625,-0.968246459960938,0.239913940429688
302.0,40.4467377160121,-79.9516797625273,2.02999997138977,0.0244598388671875,-0.994354248046875,0.137664794921875
302.0,40.4285898766919,-79.9776133383543,8.39000034332275,-0.0955352783203125,-1.01780700683594,0.0879058837890625
302.0,40.4375673272092,-79.9983512890339,0.25,0.012451171875,-0.963119506835938,0.258636474609375
303.0,40.4285959500276,-79.977723289914,8.05000019073486,-0.3660888671875,-0.996917724609375,0.195098876953125
303.0,40.4375660699237,-79.998351540491,0.340000003576279,0.0300445556640625,-0.950103759765625,0.278182983398438
304.0,40.4286011293137,-79.9778178287982,7.75,0.204025268554688,-1.05934143066406,-0.007720947265625
304.0,40.4375649383668,-79.9983554799855,0.209999993443489,0.0344696044921875,-0.963592529296875,0.28375244140625
305.0,40.4286058982155,-79.9779048768286,7.53000020980835,0.563339233398438,-1.302978515625,0.019683837890625
305.0,40.4375691712279,-79.9983571563661,0.280000001192093,0.0359344482421875,-0.955978393554688,0.309326171875
306.0,40.4286106547198,-79.9779928191151,7.44000005722046,0.123947143554688,-0.962417602539062,0.095947265625
306.0,40.437573236451,-79.9983556476235,0.540000021457672,-0.0890960693359375,-0.911270141601562,0.240249633789062
307.0,40.4286147218556,-79.978070885655,6.98999977111816,0.019073486328125,-0.974517822265625,0.193756103515625
307.0,40.4375806963448,-79.9983533006907,1.01999998092651,0.005401611328125,-1.02920532226562,0.312408447265625
308.0,40.4286188107419,-79.9781493696839,7.07000017166138,0.116989135742188,-1.03659057617188,0.327774047851562
308.0,40.4375894973431,-79.998346343711,1.11000001430511,-0.146743774414062,-0.917617797851562,0.205810546875
309.0,40.4286233315762,-79.9782361447309,7.32000017166138,0.117843627929688,-1.16476440429688,0.267623901367188
309.0,40.4376070574303,-79.9983140733838,1.9099999666214,-0.1019287109375,-0.855911254882812,0.303634643554688
310.0,40.4286279232373,-79.9783242792596,7.59000015258789,0.111358642578125,-0.957687377929688,0.257247924804688
310.0,40.4376068478827,-79.9982885085791,2.1800000667572,-0.024261474609375,-0.98748779296875,0.327194213867188
311.0,40.428632912531,-79.9784200461375,8.22000026702881,-0.003692626953125,-0.907440185546875,0.277328491210938
311.0,40.4375975439702,-79.9982569926232,2.8199999332428,-0.020263671875,-1.02059936523438,0.17333984375
312.0,40.4286380727265,-79.9785190933857,8.67000007629395,-0.127487182617188,-1.07817077636719,0.023284912109375
312.0,40.4375894135241,-79.9982269015908,2.84999990463257,-0.0986480712890625,-0.994094848632812,0.156326293945312
313.0,40.4286435090454,-79.9786234406782,8.69999980926514,-0.03118896484375,-0.935760498046875,0.08905029296875
313.0,40.4375845520202,-79.9982029293478,2.07999992370605,-0.00506591796875,-1.02975463867188,0.0945892333984375
314.0,40.4286486302488,-79.9787225586421,8.23999977111816,0.538482666015625,-0.905517578125,0.4697265625
314.0,40.4375822050874,-79.9981954694539,1.0,0.027191162109375,-0.982223510742188,0.188949584960938
315.0,40.4286535851535,-79.9788193493565,8.19999980926514,0.0448150634765625,-0.946029663085938,0.202194213867188
315.0,40.4375834623728,-79.9981979002059,0.349999994039536,0.037506103515625,-0.98260498046875,0.19525146484375
316.0,40.4286585963178,-79.9789172390669,8.3100004196167,-0.0297088623046875,-0.906463623046875,0.0503997802734375
316.0,40.4375834623728,-79.9981979002059,0.0,0.0210418701171875,-0.981735229492188,0.199859619140625
317.0,40.4286633957752,-79.979010993224,8.14000034332275,-0.08648681640625,-0.745071411132812,0.353225708007812
317.0,40.4375834623728,-79.9981979002059,0.0,0.0298004150390625,-0.981369018554688,0.196685791015625
318.0,40.428668286641,-79.9791065329834,8.36999988555908,0.0977783203125,-0.8153076171875,0.2994384765625
318.0,40.4375834623728,-79.9981979002059,0.0,0.033233642578125,-0.983154296875,0.19732666015625
319.0,40.4286696389972,-79.9791329503474,8.61999988555908,-0.025726318359375,-1.04840087890625,0.0813446044921875
319.0,40.4375834623728,-79.9981979002059,0.0,0.0311126708984375,-0.981246948242188,0.199111938476562
320.0,40.428680406532,-79.9793060543963,8.69999980926514,0.202880859375,-1.07398986816406,0.115631103515625
320.0,40.4375834623728,-79.9981979002059,0.0,0.0312957763671875,-0.979873657226562,0.20037841796875
321.0,40.4287311667953,-79.9794085231423,8.36999988555908,0.055938720703125,-0.919158935546875,0.303176879882812
321.0,40.4375834623728,-79.9981979002059,0.0,0.033905029296875,-0.979949951171875,0.19854736328125
322.0,40.4287361121182,-79.9795045797527,8.15999984741211,-0.07427978515625,-0.802398681640625,0.06622314453125
322.0,40.4375834623728,-79.9981979002059,0.0,0.0297698974609375,-0.988800048828125,0.199874877929688
323.0,40.4287418956314,-79.9796028994769,8.09000015258789,0.035858154296875,-1.0169677734375,0.0952301025390625
323.0,40.4375834623728,-79.9981979002059,0.0,0.02435302734375,-0.97998046875,0.199874877929688
324.0,40.4287446616594,-79.9796971120685,7.92000007629395,0.01611328125,-1.1729736328125,0.164474487304688
324.0,40.4375834623728,-79.9981979002059,0.0,0.0300140380859375,-0.9764404296875,0.197036743164062
325.0,40.4287502775345,-79.9797876366228,7.59000015258789,0.0605316162109375,-0.8995361328125,0.113479614257812
325.0,40.4375834623728,-79.9981979002059,0.0,0.0298614501953125,-0.98236083984375,0.198486328125
326.0,40.4287533369292,-79.9798743893206,7.17999982833862,-0.076202392578125,-0.9996337890625,-0.093048095703125
326.0,40.4375834623728,-79.9981979002059,0.0,0.0329437255859375,-0.982040405273438,0.197158813476562
327.0,40.4287576116998,-79.9799475633353,5.78000020980835,-0.173843383789062,-1.0814208984375,0.0349273681640625
327.0,40.4375834623728,-79.9981979002059,0.0,0.0373992919921875,-0.979293823242188,0.20074462890625
328.0,40.4287602519993,-79.9800007046014,3.92000007629395,-0.0449066162109375,-1.06733703613281,-0.0482330322265625
328.0,40.4375834623728,-79.9981979002059,0.0,0.02374267578125,-0.979782104492188,0.200790405273438
329.0,40.4287612159182,-79.9800328911096,2.02999997138977,-0.068450927734375,-1.00541687011719,0.0019683837890625
329.0,40.4375834623728,-79.9981979002059,0.0,0.03179931640625,-0.97576904296875,0.199874877929688
330.0,40.4287622636561,-79.9800468888879,0.540000021457672,-0.0411834716796875,-0.994918823242188,0.0265350341796875
330.0,40.4375834623728,-79.9981979002059,0.0,0.03607177734375,-0.979629516601562,0.195510864257812
331.0,40.4287622636561,-79.9800468888879,0.0,0.04193115234375,-0.9896240234375,0.116775512695312
331.0,40.4375834623728,-79.9981979002059,0.0,0.0311279296875,-0.977554321289062,0.197006225585938
332.0,40.4287622636561,-79.9800468888879,0.0,0.03302001953125,-0.9947509765625,0.106521606445312
332.0,40.4375834623728,-79.9981979002059,0.0,0.031585693359375,-0.98614501953125,0.196640014648438
333.0,40.4287622636561,-79.9800468888879,0.0,0.037445068359375,-0.99456787109375,0.11041259765625
333.0,40.4375834623728,-79.9981979002059,0.0,0.0318756103515625,-0.981430053710938,0.19818115234375
334.0,40.4287622636561,-79.9800468888879,0.0,0.0386199951171875,-0.995269775390625,0.115768432617188
334.0,40.4375834623728,-79.9981979002059,0.0,0.0341949462890625,-0.978805541992188,0.19970703125
335.0,40.4287622636561,-79.9800468888879,0.0,0.0341033935546875,-0.996047973632812,0.113510131835938
335.0,40.4375834623728,-79.9981979002059,0.0,0.031524658203125,-0.985031127929688,0.196533203125
336.0,40.4287622636561,-79.9800468888879,0.0,0.0295562744140625,-0.99774169921875,0.113082885742188
336.0,40.4375834623728,-79.9981979002059,0.0,0.0320892333984375,-0.978713989257812,0.201416015625
337.0,40.4287622636561,-79.9800468888879,0.0,0.0363616943359375,-0.990447998046875,0.106094360351562
337.0,40.4375834623728,-79.9981979002059,0.0,0.031768798828125,-0.98004150390625,0.200393676757812
338.0,40.4287622636561,-79.9800468888879,0.0,0.0364227294921875,-0.990386962890625,0.11260986328125
338.0,40.4375834623728,-79.9981979002059,0.0,0.0480499267578125,-0.978195190429688,0.245285034179688
339.0,40.4287622636561,-79.9800468888879,0.0,0.03631591796875,-0.9937744140625,0.108612060546875
339.0,40.4375834623728,-79.9981979002059,0.0,0.0921783447265625,-0.949371337890625,0.296066284179688
340.0,40.4287622636561,-79.9800468888879,0.0,0.0341033935546875,-0.994674682617188,0.104705810546875
340.0,40.437577301674,-79.9982155022025,1.07000005245209,0.0567779541015625,-0.995880126953125,0.32037353515625
341.0,40.4287622636561,-79.9800468888879,0.0,0.03106689453125,-0.992477416992188,0.108535766601562
341.0,40.4375709314276,-79.9982002471387,2.0699999332428,-0.0399017333984375,-0.922348022460938,0.259231567382812
342.0,40.4287622636561,-79.9800468888879,0.0,0.0371856689453125,-0.994857788085938,0.112197875976562
342.0,40.437554796264,-79.9981818907708,2.80999994277954,-0.17413330078125,-0.927093505859375,0.304473876953125
343.0,40.4287622636561,-79.9800468888879,0.0,0.0352935791015625,-0.993743896484375,0.113174438476562
343.0,40.4375309078399,-79.9981626123935,2.90000009536743,-0.065826416015625,-1.00312805175781,0.2821044921875
344.0,40.4287622636561,-79.9800468888879,0.0,0.037353515625,-0.990493774414062,0.112991333007812
344.0,40.437508486249,-79.9981605169177,2.72000002861023,0.0486907958984375,-0.931060791015625,0.359024047851562
345.0,40.4287622636561,-79.9800468888879,0.0,0.03839111328125,-0.992965698242188,0.109970092773438
345.0,40.4374856455628,-79.9981645402312,2.60999989509583,-0.051361083984375,-1.08555603027344,0.331695556640625
346.0,40.4287622636561,-79.9800468888879,0.0,0.0335235595703125,-0.995010375976562,0.1142578125
346.0,40.4374561831732,-79.9981682282686,2.8199999332428,-0.09539794921875,-1.05999755859375,0.08563232421875
347.0,40.4287622636561,-79.9800468888879,0.0,0.0341949462890625,-0.992385864257812,0.111343383789062
347.0,40.4374294029925,-79.998185159713,2.96000003814697,0.0238800048828125,-1.06755065917969,0.0344085693359375
348.0,40.4287622636561,-79.9800468888879,0.0,0.0418701171875,-0.999313354492188,0.1080322265625
348.0,40.4373992281411,-79.9981960561872,2.42000007629395,-0.060089111328125,-0.981369018554688,0.0511932373046875
349.0,40.4287622636561,-79.9800468888879,0.0,0.0383758544921875,-0.996353149414062,0.110000610351562
349.0,40.4373642336954,-79.99821139507,1.79999995231628,-0.046234130859375,-0.9652099609375,0.114608764648438
350.0,40.4287622636561,-79.9800468888879,0.0,0.036468505859375,-0.992355346679688,0.11077880859375
350.0,40.4373582406346,-79.998214244917,0.589999973773956,0.005889892578125,-0.978607177734375,0.18682861328125
351.0,40.4287622636561,-79.9800468888879,0.0,0.035125732421875,-0.991439819335938,0.11614990234375
351.0,40.4373542592306,-79.9982111436129,0.259999990463257,-0.0035400390625,-0.9847412109375,0.198089599609375
352.0,40.4287622636561,-79.9800468888879,0.0,0.0390472412109375,-0.993499755859375,0.10986328125
352.0,40.4373522056643,-79.9982143287361,0.509999990463257,0.0103607177734375,-0.976226806640625,0.205520629882812
353.0,40.4287622636561,-79.9800468888879,0.0,0.0309600830078125,-0.996047973632812,0.1107177734375
353.0,40.4373522475738,-79.9982068688422,0.200000002980232,0.0125274658203125,-0.982925415039062,0.205963134765625
354.0,40.4287622636561,-79.9800468888879,0.0,0.0371246337890625,-0.992507934570312,0.107666015625
354.0,40.4373534210403,-79.9982077908516,0.28999999165535,0.007049560546875,-0.976028442382812,0.206756591796875
355.0,40.4287622636561,-79.9800468888879,0.0,0.034576416015625,-0.990753173828125,0.109375
355.0,40.4373504873742,-79.9982110597938,0.28999999165535,0.005889892578125,-0.97802734375,0.205795288085938
356.0,40.4287622636561,-79.9800468888879,0.0,0.037811279296875,-0.988876342773438,0.113571166992188
356.0,40.4373504873742,-79.9982110597938,0.0,0.007843017578125,-0.979324340820312,0.203369140625
357.0,40.4287622636561,-79.9800468888879,0.0,0.05462646484375,-0.998779296875,0.136444091796875
357.0,40.4373504873742,-79.9982110597938,0.0,0.01239013671875,-0.977127075195312,0.203475952148438
358.0,40.4287750041489,-79.9800515827536,0.280000001192093,0.04656982421875,-0.979324340820312,0.145767211914062
358.0,40.4373504873742,-79.9982110597938,0.0,0.0118865966796875,-0.975204467773438,0.204910278320312
359.0,40.4287747526918,-79.9800568633526,0.540000021457672,0.09051513671875,-1.00743103027344,0.180343627929688
359.0,40.4373504873742,-79.9982110597938,0.0,0.01470947265625,-0.974014282226562,0.206161499023438
360.0,40.4287748784203,-79.9800676760077,1.0900000333786,0.120742797851562,-0.96942138671875,0.212295532226562
360.0,40.4373504873742,-79.9982110597938,0.0,0.0065765380859375,-0.98095703125,0.203414916992188
361.0,40.4287769738961,-79.9800899718702,2.28999996185303,0.0956573486328125,-0.972213745117188,0.23345947265625
361.0,40.4373504873742,-79.9982110597938,0.0,0.0063018798828125,-0.978424072265625,0.203750610351562
362.0,40.4287784826387,-79.9801252596825,3.40000009536743,0.103988647460938,-0.981582641601562,0.170318603515625
362.0,40.4373504873742,-79.9982110597938,0.0,0.00738525390625,-0.976394653320312,0.20233154296875
363.0,40.4287809553001,-79.9801733718067,4.3899998664856,0.07623291015625,-1.02946472167969,0.185699462890625
363.0,40.4373504873742,-79.9982110597938,0.0,0.011627197265625,-0.977569580078125,0.200027465820312
364.0,40.4287853138898,-79.9802307878434,5.1100001335144,0.086212158203125,-0.973129272460938,0.121749877929688
364.0,40.4373504873742,-79.9982110597938,0.0,0.0095672607421875,-0.980133056640625,0.203659057617188
365.0,40.4287880799178,-79.9802916404605,5.55000019073486,0.145904541015625,-0.997940063476562,-0.0009613037109375
365.0,40.4373504873742,-79.9982110597938,0.0,0.0088043212890625,-0.98040771484375,0.205429077148438
366.0,40.4287935700644,-79.9803598691523,5.90999984741211,0.0896453857421875,-1.1468505859375,-0.0065460205078125
366.0,40.4373504873742,-79.9982110597938,0.0,0.0104217529296875,-0.980987548828125,0.206832885742188
367.0,40.4287969647352,-79.9804281816631,5.84999990463257,0.032623291015625,-1.09738159179688,0.130294799804688
367.0,40.4373504873742,-79.9982110597938,0.0,0.01519775390625,-0.977096557617188,0.206192016601562
368.0,40.4288006108631,-79.9804933090508,5.59000015258789,0.0355377197265625,-0.979751586914062,0.0865631103515625
368.0,40.4373504873742,-79.9982110597938,0.0,0.011077880859375,-0.977325439453125,0.2059326171875
369.0,40.4288047599051,-79.980560029,5.40999984741211,-0.0299835205078125,-1.00529479980469,0.0030364990234375
369.0,40.4373504873742,-79.9982110597938,0.0,0.010223388671875,-0.977340698242188,0.199783325195312
370.0,40.4288081545759,-79.9806223065406,5.15999984741211,0.057708740234375,-0.99957275390625,0.127090454101562
370.0,40.4373504873742,-79.9982110597938,0.0,0.01129150390625,-0.977310180664062,0.20513916015625
371.0,40.4288079450283,-79.9806786329299,4.94999980926514,0.077850341796875,-0.726028442382812,0.357391357421875
371.0,40.4373504873742,-79.9982110597938,0.0,0.0111541748046875,-0.97967529296875,0.2037353515625
372.0,40.4288111720611,-79.9807497952878,5.53000020980835,0.0830841064453125,-0.845672607421875,0.218124389648438
372.0,40.4373504873742,-79.9982110597938,0.0,0.0124053955078125,-0.97943115234375,0.200241088867188
373.0,40.4288158240173,-79.9808194489032,6.55000019073486,-0.273101806640625,-1.72663879394531,0.0890960693359375
373.0,40.4373504873742,-79.9982110597938,0.0,0.008392333984375,-0.977890014648438,0.198516845703125
374.0,40.4288215237115,-79.9809029326588,7.40000009536743,0.00372314453125,-0.95208740234375,0.005126953125
374.0,40.4373504873742,-79.9982110597938,0.0,0.0142059326171875,-0.9815673828125,0.205108642578125
375.0,40.4288270557676,-79.980990858823,7.6399998664856,-0.08099365234375,-0.94659423828125,-0.0438232421875
375.0,40.4373504873742,-79.9982110597938,0.0,0.0086212158203125,-0.97967529296875,0.201141357421875
376.0,40.4288352700327,-79.9810775277018,7.59000015258789,0.0796356201171875,-0.931381225585938,0.210769653320312
376.0,40.4373504873742,-79.9982110597938,0.0,0.0018768310546875,-0.9781494140625,0.199600219726562
377.0,40.4288441967596,-79.9811722432077,7.84000015258789,0.0503997802734375,-0.935531616210938,0.292343139648438
377.0,40.4373504873742,-79.9982110597938,0.0,0.0077362060546875,-0.9786376953125,0.20416259765625
378.0,40.4288479267065,-79.9812710658461,8.27000045776367,0.0299224853515625,-1.13780212402344,0.0383453369140625
378.0,40.4373504873742,-79.9982110597938,0.0,0.0104217529296875,-0.979217529296875,0.202911376953125
379.0,40.4288520757485,-79.9813676253706,8.06999969482422,-0.0080413818359375,-1.02955627441406,0.155731201171875
379.0,40.4373504873742,-79.9982110597938,0.0,0.0142974853515625,-0.974502563476562,0.207138061523438
380.0,40.4288545065005,-79.981461251229,7.57999992370605,-0.187591552734375,-0.972213745117188,-0.0133819580078125
380.0,40.4373504873742,-79.9982110597938,0.0,0.0160064697265625,-0.979660034179688,0.203094482421875
381.0,40.4288570210714,-79.9815333355963,5.98999977111816,-0.010528564453125,-1.07684326171875,-0.0914764404296875
381.0,40.4373504873742,-79.9982110597938,0.0,0.0170745849609375,-0.981338500976562,0.199905395507812
382.0,40.4288597870995,-79.9815902487188,3.98000001907349,-0.081085205078125,-0.993484497070312,-0.018310546875
382.0,40.4373504873742,-79.9982110597938,0.0,0.0108184814453125,-0.976333618164062,0.205703735351562
383.0,40.4288607091088,-79.9816174060851,2.20000004768372,-0.047027587890625,-1.031982421875,0.0337982177734375
383.0,40.4373504873742,-79.9982110597938,0.0,0.0172576904296875,-0.9775390625,0.201934814453125
384.0,40.4288605414707,-79.9816267099976,0.430000007152557,0.0557861328125,-0.977142333984375,0.164260864257812
384.0,40.4373504873742,-79.9982110597938,0.0,0.01226806640625,-0.9810791015625,0.204177856445312
385.0,40.4288616311182,-79.9816377741098,0.910000026226044,0.0834197998046875,-1.00028991699219,0.241256713867188
385.0,40.4373504873742,-79.9982110597938,0.0,0.0420379638671875,-0.958847045898438,0.286834716796875
386.0,40.4288633913178,-79.981654118821,1.62000000476837,0.110107421875,-0.98828125,0.185012817382812
386.0,40.4373504873742,-79.9982110597938,0.0,0.0760955810546875,-0.923934936523438,0.348114013671875
387.0,40.4288684623692,-79.981680521816,2.54999995231628,0.177642822265625,-0.994552612304688,0.290786743164062
387.0,40.4373237910126,-79.9982197769731,1.30999994277954,0.205947875976562,-1.19984436035156,0.327468872070312
388.0,40.4288725275923,-79.9817231018841,4.15000009536743,0.10284423828125,-0.957687377929688,0.2197265625
388.0,40.4373094160486,-79.9982295837998,2.01999998092651,-0.0039215087890625,-1.03507995605469,0.433074951171875
389.0,40.4288785625626,-79.9817764107883,5.05000019073486,0.0349884033203125,-0.99603271484375,0.026702880859375
389.0,40.4372825101395,-79.9982473534346,3.46000003814697,0.17681884765625,-1.05880737304688,0.404647827148438
390.0,40.4288832983379,-79.9818403647095,5.6399998664856,0.093109130859375,-1.00898742675781,0.03399658203125
390.0,40.4372431151945,-79.9982890953124,5.32999992370605,0.0999298095703125,-1.20477294921875,0.468841552734375
391.0,40.4288896685843,-79.9819044024497,5.25,-0.037017822265625,-1.1390380859375,-0.025726318359375
391.0,40.4371952545274,-79.9983393029124,7.32000017166138,-0.03192138671875,-0.894363403320312,0.475250244140625
392.0,40.4288980504874,-79.9819623214006,4.82000017166138,-0.347671508789062,-0.735870361328125,0.129043579101562
392.0,40.4371357430149,-79.9984077830613,9.44999980926514,0.258346557617188,-0.940582275390625,0.634689331054688
393.0,40.4289202206213,-79.9820086733252,4.48999977111816,-0.187652587890625,-1.04237365722656,0.205307006835938
393.0,40.4370506247882,-79.9984966312349,12.1499996185303,0.0411224365234375,-1.09608459472656,0.2451171875
394.0,40.4289516527582,-79.9820263591408,3.75999999046326,-0.0385284423828125,-0.972702026367188,0.248565673828125
394.0,40.4369574180249,-79.9986066856235,14.1700000762939,0.0014495849609375,-0.987091064453125,0.29150390625
395.0,40.4289921792601,-79.982029460445,4.57000017166138,0.221725463867188,-0.951797485351562,0.302337646484375
395.0,40.436856616162,-79.9987150302128,14.8599996566772,0.0895233154296875,-1.01863098144531,0.182662963867188
396.0,40.4290473321829,-79.982024012208,6.13000011444092,0.132308959960938,-0.953903198242188,0.386993408203125
396.0,40.4367552798372,-79.9988419652715,15.4399995803833,-0.0336456298828125,-0.941192626953125,0.185775756835938
397.0,40.4291195841883,-79.982016133219,8.06999969482422,0.108184814453125,-1.00846862792969,0.210342407226562
