timestamp,latitude,longitude,speed,accelerometerX,accelerometerY,accelerometerZ,gyroX,gyroY,gyroZ
1490542045.0,40.44215244,-79.93912468,0.0,0.06994628906,-0.9554443359,0.2808074951,-100.0,-100.0,-100.0
1490542045.0,40.44215244,-79.93912468,0.0,0.07574462891,-0.9530487061,0.251449585,-0.01704502992,0.00962466418,-0.002960103552
1490542045.0,40.44215244,-79.93912468,0.0,0.07543945313,-0.9536437988,0.2535552979,-0.01386521558,0.006415022434,-0.004074370152
1490542046.0,40.44215244,-79.93912468,0.0,0.07315063477,-0.9504089355,0.2482452393,-0.01173042565,-0.001023452807,0.0001470064922
1490542046.0,40.44215244,-79.93912468,0.0,0.05233764648,-0.9624023438,0.2696838379,-0.0138391166,0.01386628085,-0.004057592237
1490542046.0,40.44215244,-79.93912468,0.0,0.07041931152,-0.9542999268,0.2750701904,-0.01278823324,0.007480819502,-0.003019225728
1490542046.0,40.44215244,-79.93912468,0.0,0.07228088379,-0.9506835938,0.2633056641,-0.01278796692,0.009604690471,-0.004080761738
1490542046.0,40.44215244,-79.93912468,0.0,0.0809173584,-0.9456939697,0.2581939697,-0.0149235558,0.0106715528,-0.005117530351
1490542047.0,40.44215244,-79.93912468,0.0,0.08149719238,-0.9509887695,0.249206543,-0.02131301189,0.008575112394,-0.00290817191
1490542047.0,40.44215244,-79.93912468,0.0,0.07482910156,-0.9514160156,0.2598266602,-0.0191739609,0.00644884458,-0.0008074704425
1490542047.0,40.44215244,-79.93912468,0.0,0.08018493652,-0.9451751709,0.2499694824,-0.01705941099,0.009614544167,-0.005092762953
1490542047.0,40.44215244,-79.93912468,0.0,0.0858001709,-0.9451904297,0.2445678711,-0.01598935287,0.0127991522,-0.00616548424
1490542047.0,40.44215244,-79.93912468,0.0,0.07838439941,-0.9491729736,0.2483825684,-0.01171870774,0.006417685595,-0.001968874994
1490542048.0,40.44215244,-79.93912468,0.0,0.08274841309,-0.9537963867,0.2720184326,-0.01811881648,0.00537559066,-0.00188977911
1490542048.0,40.44215244,-79.93912468,0.0,0.08291625977,-0.9523162842,0.2762145996,-0.02560576125,0.01069365704,-0.008180698237
1490542048.0,40.44215244,-79.93912468,0.0,0.04927062988,-0.9645843506,0.2881622314,-0.0107226855,-0.007439274189,-0.005212605202
1490542048.0,40.44215244,-79.93912468,0.0,0.007675170898,-0.9103546143,0.2916717529,-0.0138407145,0.02979278311,-0.01255227717
1490542048.0,40.44215244,-79.93912468,0.0,-0.005645751953,-0.9591064453,0.2691955566,0.01062627907,-0.01598908655,0.003027215211
1490542049.0,40.44215244,-79.93912468,0.0,0.02297973633,-0.9510192871,0.2774810791,-1.73e-05,-0.02337270067,0.009544236715
1490542049.0,40.44215244,-79.93912468,0.0,0.04179382324,-0.9572601318,0.2733306885,-0.01281273432,0.0127727869,-0.009405219706
1490542049.0,40.44215244,-79.93912468,0.0,0.04164123535,-0.9574584961,0.2622528076,-0.01283617014,0.02656023818,-0.02003735773
1490542049.0,40.44215244,-79.93912468,0.0,0.06524658203,-0.9631500244,0.2690582275,-0.008558334479,0.02018383159,-0.01477441878
1490542049.0,40.44215244,-79.93912468,0.0,0.06964111328,-0.9613647461,0.2682952881,-0.0117394804,0.01277411848,-0.008352472127
1490542050.0,40.44215244,-79.93912468,0.0,0.07765197754,-0.9544219971,0.3000183105,-0.006444317206,-0.009567938848,-0.002072738276
1490542050.0,40.44215244,-79.93912468,0.0,0.0597076416,-0.9522094727,0.310760498,-0.01067821071,0.003210440694,-0.004122307051
1490542050.0,40.44215244,-79.93912468,0.0,0.07225036621,-0.9354705811,0.357925415,-0.006401440312,0.0170082783,-0.009477125055
1490542050.0,40.44215244,-79.93912468,0.0,0.07618713379,-0.9320068359,0.3723144531,-0.01595419914,0.006452839321,0.002350772294
1490542050.0,40.44215244,-79.93912468,0.0,0.07901000977,-0.9319000244,0.4174041748,-0.006386260294,0.02339001122,-0.01052907369
1490542051.0,40.44215244,-79.93912468,0.0,0.08586120605,-0.9608154297,0.4294891357,-0.01589880539,-0.01049764838,0.01937369798
1490542051.0,40.44215244,-79.93912468,0.0,0.1544036865,-0.9147796631,0.4292144775,-0.04360766495,0.08835676075,-0.0301677562
1490542051.0,40.44215244,-79.93912468,0.0,0.1493225098,-0.9397125244,0.5186157227,-0.0319350299,0.05854613446,-0.02291996329
1490542051.0,40.44215244,-79.93912468,0.0,0.1025543213,-0.8962097168,0.3982696533,-0.05426137458,0.05760550596,-0.01304016828
1490542051.0,40.44215244,-79.93912468,0.0,0.07885742188,-0.9105987549,0.4391937256,-0.02651816024,0.06071208337,-0.0112534535
1490542052.0,40.44215244,-79.93912468,0.0,0.0943145752,-0.8975219727,0.4086608887,-0.009443302909,0.03093341501,0.006589725801
1490542052.0,40.44215244,-79.93912468,0.0,0.1021118164,-0.9031219482,0.4580688477,0.004475442212,0.07870999233,-0.009473929262
1490542052.0,40.44215244,-79.93912468,0.0,0.1140441895,-0.9027557373,0.3653717041,-0.05874214311,0.07976673465,-0.05665502377
1490542052.0,40.44215244,-79.93912468,0.0,0.101776123,-0.9321289063,0.4233856201,-0.004157727094,0.0754806432,-0.02323474893
1490542052.0,40.4420915,-79.93914647,1.210000038,0.07922363281,-0.9160003662,0.3947296143,-0.006328736014,0.1094396755,-0.04659013906
1490542053.0,40.4420915,-79.93914647,1.210000038,0.09991455078,-0.9208221436,0.3911895752,0.002197906848,0.06587302325,-0.02440414297
1490542053.0,40.4420915,-79.93914647,1.210000038,0.01919555664,-0.8835144043,0.4156036377,-0.02966867981,0.01085025091,0.02173086186
1490542053.0,40.4420915,-79.93914647,1.210000038,0.02352905273,-0.9058532715,0.3988800049,0.003253583904,0.04037778318,-0.01274562266
1490542053.0,40.44206384,-79.93918302,4.25,0.04374694824,-0.9553375244,0.4749145508,0.02669286361,0.0137397807,-0.001374723755
1490542053.0,40.44206384,-79.93918302,4.25,0.01979064941,-0.936050415,0.3434295654,-0.05227971641,-0.02426965333,0.007008374725
1490542054.0,40.44206384,-79.93918302,4.25,0.06315612793,-0.9442443848,0.3869476318,-0.1023032027,-0.004923918539,0.009822537049
1490542054.0,40.44206384,-79.93918302,4.25,0.04577636719,-0.8930969238,0.3564300537,0.06811780173,0.009240370034,-0.02217427818
1490542054.0,40.44206384,-79.93918302,4.25,0.1012878418,-0.9606018066,0.2973937988,-0.02028396644,0.02872032814,-0.01887115948
1490542054.0,40.44206384,-79.93918302,4.25,0.04524230957,-0.9472045898,0.4276733398,0.02133378454,0.0137381828,-0.005572131949
1490542054.0,40.44203698,-79.93922677,5.329999924,0.07246398926,-0.9590301514,0.3780822754,0.06192834904,-0.03200347314,0.03006389291
1490542055.0,40.44203698,-79.93922677,5.329999924,0.02577209473,-0.9174041748,0.2841796875,-0.04783117213,-0.04539171657,0.04529397856
1490542055.0,40.44203698,-79.93922677,5.329999924,0.02731323242,-0.8832550049,0.2986602783,-0.005322860071,0.002147573103,7.27e-05
1490542055.0,40.44203698,-79.93922677,5.329999924,0.0431060791,-0.9446105957,0.3558502197,-0.05982045704,0.01074212657,-0.02267468615
1490542055.0,40.44203698,-79.93922677,5.329999924,0.07348632813,-0.9299926758,0.2526855469,0.06519258559,0.03598969266,0.004584631817
1490542055.0,40.44200789,-79.9392815,5.329999924,0.001495361328,-0.9643554688,0.3078613281,-0.09393981166,-0.0316159832,-0.001009338053
1490542056.0,40.44200789,-79.9392815,5.329999924,0.09252929688,-0.9518890381,0.3535461426,0.03301014803,-0.01500797801,0.001678057803
1490542056.0,40.44200789,-79.9392815,5.329999924,0.005325317383,-0.9642181396,0.3587646484,0.009425193414,0.02533145566,-0.03845258403
1490542056.0,40.44200789,-79.9392815,5.329999924,0.03924560547,-0.9417114258,0.3262634277,-0.0151565824,-0.07019240422,0.002164617334
1490542056.0,40.44200789,-79.9392815,5.329999924,0.09295654297,-0.9623718262,0.3518829346,0.004193946085,-0.01599201603,-0.002222940562
1490542056.0,40.44197193,-79.9393494,5.920000076,0.09355163574,-0.9698486328,0.3249816895,0.04163559417,-0.0447011589,0.03135952078
1490542057.0,40.44197193,-79.9393494,5.920000076,0.001083374023,-0.9033355713,0.2233428955,-0.03956685063,-0.03074166741,-0.001699629408
1490542057.0,40.44197193,-79.9393494,5.920000076,-0.04467773438,-0.9342193604,0.2594909668,-0.01822587555,-0.1030076089,0.03838627132
1490542057.0,40.44197193,-79.9393494,5.920000076,-0.06611633301,-0.9300689697,0.2740020752,-0.05984762128,-0.09121379997,0.02614638295
1490542057.0,40.44197193,-79.9393494,5.920000076,-0.02288818359,-0.9149780273,0.1862640381,-0.1194667433,0.005679191025,-0.01126277457
1490542057.0,40.44193086,-79.93942274,6.369999886,0.1014862061,-0.9517669678,0.1820983887,-0.02986415583,0.02876400399,-0.01661626099
1490542058.0,40.44193086,-79.93942274,6.369999886,0.1503295898,-1.014862061,0.1536407471,-0.01154080858,0.07768627321,-0.01247158338
1490542058.0,40.44193086,-79.93942274,6.369999886,-0.004272460938,-0.9855041504,0.2893676758,0.07153730057,-0.03202690895,0.03207431322
1490542058.0,40.44193086,-79.93942274,6.369999886,0.04853820801,-1.013076782,0.2347869873,0.0694134296,-0.0521886363,0.04378556411
1490542058.0,40.4418594,-79.93946915,6.389999866,0.1087799072,-0.984588623,0.2622833252,-0.0296785335,0.0182762093,0.01641599128
1490542058.0,40.4418594,-79.93946915,6.389999866,0.05436706543,-0.9679260254,0.2480316162,-0.05669816698,-0.04984745139,-0.002591788373
1490542059.0,40.4418594,-79.93946915,6.389999866,0.07899475098,-0.8522491455,0.2973327637,-0.02783882182,-0.07750278141,0.02257108919
1490542059.0,40.4418594,-79.93946915,6.389999866,0.1561431885,-1.186172485,0.3209533691,0.2320814395,0.08178541076,-0.09341197313
1490542059.0,40.4418594,-79.93946915,6.389999866,0.2738494873,-1.034484863,0.3304138184,0.1470557607,0.02917413079,-0.02633280423
1490542059.0,40.4418594,-79.93946915,6.389999866,-0.3498840332,-0.6604309082,0.4843292236,0.09965309115,-0.1252857503,0.1392095554
1490542059.0,40.44182878,-79.93954077,6.389999866,-0.2122497559,-0.6897735596,0.2909851074,-0.1636163616,-0.3576281796,0.1121686167
1490542060.0,40.44182878,-79.93954077,6.389999866,-0.1636199951,-0.8749389648,0.3971405029,-0.008401474291,-0.1910122997,0.1180398216
1490542060.0,40.44182878,-79.93954077,6.389999866,-0.09211730957,-0.8902282715,0.4514770508,0.00615589686,-0.05434553047,-0.007668039727
1490542060.0,40.44182878,-79.93954077,6.389999866,0.1976470947,-0.8829650879,0.4162445068,0.01912069768,0.05616233896,-0.03957164432
1490542060.0,40.44182878,-79.93954077,6.389999866,0.2117919922,-0.9676513672,0.3264007568,-0.02960103552,0.0915978278,-0.01007686893
1490542060.0,40.44179535,-79.93961755,6.389999866,0.08497619629,-0.8997497559,0.3677215576,-0.002053030884,0.05740257308,-0.01797101104
1490542061.0,40.44179535,-79.93961755,6.389999866,0.1468963623,-0.9485931396,0.3490142822,0.008653941962,0.05421237241,-0.009583385183
1490542061.0,40.44179535,-79.93961755,6.389999866,0.1503601074,-0.9771270752,0.3832702637,0.02775706278,0.1422175959,-0.06827705876
1490542061.0,40.44179535,-79.93961755,6.389999866,0.03192138672,-0.9741516113,0.3871917725,-0.02228346779,0.1116447729,-0.04211629474
1490542061.0,40.44179535,-79.93961755,6.389999866,0.1076507568,-0.9469451904,0.3479003906,-0.01375922177,0.02029355382,0.004487426437
1490542061.0,40.44176204,-79.93969405,7.230000019,0.2194671631,-0.9354705811,0.3502502441,-0.09340744576,0.05689151247,0.03224582079
1490542062.0,40.44176204,-79.93969405,7.230000019,0.169418335,-1.051132202,0.4192199707,0.006531136257,0.2145644974,-0.09130168428
1490542062.0,40.44176204,-79.93969405,7.230000019,0.009979248047,-0.9995727539,0.3849182129,-0.001963814988,0.08082587382,-0.01685195075
1490542062.0,40.44176204,-79.93969405,7.230000019,0.041015625,-0.9356384277,0.3173522949,-0.006266151729,0.00648506357,0.01609081931
1490542062.0,40.44176204,-79.93969405,7.230000019,-0.002868652344,-0.9354553223,0.3638000488,0.003316434505,-0.117792414,0.07860160168
1490542062.0,40.44172339,-79.93978284,8.229999542,0.09812927246,-0.9384918213,0.3439025879,-0.05009619063,0.01292352182,-0.004664526649
1490542063.0,40.44172339,-79.93978284,8.229999542,0.1071929932,-0.8878326416,0.3892211914,-0.08312631237,0.04065954563,-0.01591078962
1490542063.0,40.44172339,-79.93978284,8.229999542,0.0699005127,-0.9556121826,0.3102416992,-0.005291701086,-0.007387076232,0.009648099997
1490542063.0,40.44172339,-79.93978284,8.229999542,0.0944519043,-0.9327697754,0.2693023682,-0.02567047606,0.09665730124,-0.06236936852
1490542063.0,40.44172339,-79.93978284,8.229999542,0.1020050049,-0.9492645264,0.2227935791,-0.02882099563,0.0181257407,-0.01452115216
1490542063.0,40.44168306,-79.93987547,9.390000343,0.09786987305,-0.9371490479,0.2967834473,-0.01693637295,-0.0125975509,0.02471413492
1490542064.0,40.44168306,-79.93987547,9.390000343,0.03729248047,-0.9167327881,0.1945343018,-0.0360879633,-0.02843164148,0.03878494654
1490542064.0,40.44168306,-79.93987547,9.390000343,0.108505249,-0.993637085,0.2576904297,0.01609907511,0.05948330084,-0.01499812431
1490542064.0,40.44168306,-79.93987547,9.390000343,0.07946777344,-0.9940795898,0.1943969727,-0.02245683958,-0.009527192484,-0.005067995554
1490542064.0,40.44168306,-79.93987547,9.390000343,0.02378845215,-0.9560089111,0.2269592285,0.02246935643,-0.06266924046,0.04435920901
1490542064.0,40.44163966,-79.93997517,9.369999886,-0.02513122559,-1.078857422,0.2125549316,-0.03977670773,-0.07017749052,-0.01245160968
1490542065.0,40.44163966,-79.93997517,9.369999886,-0.01258850098,-0.9539642334,0.1036987305,-0.006718356482,-0.07347128815,-0.009680856879
1490542065.0,40.44163966,-79.93997517,9.369999886,-0.006195068359,-0.9793548584,0.1495361328,0.005488775007,-0.1411320914,0.09664931175
1490542065.0,40.44163966,-79.93997517,9.369999886,-0.1059112549,-0.9514923096,0.0133972168,-0.01891856375,-0.1929976863,0.1405637729
1490542065.0,40.44163966,-79.93997517,9.369999886,0.0288848877,-1.021743774,-0.01669311523,0.01400476522,0.04571342643,-0.002206162647
1490542065.0,40.44160208,-79.94006149,8.210000038,0.1061096191,-1.027862549,-0.003723144531,0.007467503697,0.06899717752,-0.03512816004
1490542066.0,40.44160208,-79.94006149,8.210000038,0.06396484375,-1.05329895,0.0008087158203,0.0161717794,-0.02010367044,0.03707226764
1490542066.0,40.44160208,-79.94006149,8.210000038,0.05851745605,-1.005935669,-0.005981445313,-0.02467738329,-0.02657142346,-0.009344499633
1490542066.0,40.44160208,-79.94006149,8.210000038,0.06118774414,-1.0,0.01988220215,-0.05105812442,-0.01673104323,0.02620550513
1490542066.0,40.44160208,-79.94006149,8.210000038,0.08941650391,-1.053894043,-0.03416442871,-0.03629728776,0.0223894616,-0.01868180873
1490542066.0,40.44156971,-79.94013585,5.670000076,0.0998840332,-1.054626465,0.004409790039,-0.01168009191,0.02768169532,-0.007252586597
1490542067.0,40.44156971,-79.94013585,5.670000076,0.05683898926,-0.984375,-0.01918029785,-0.03306873757,0.006472014081,-0.005962551365
1490542067.0,40.44156971,-79.94013585,5.670000076,0.07528686523,-1.00138855,0.008209228516,-0.008570851336,0.006371080276,-0.009473929262
1490542067.0,40.44156971,-79.94013585,5.670000076,0.09039306641,-1.020904541,-0.0171661377,-0.02884070303,0.004307929379,-0.01028699234
1490542067.0,40.44156971,-79.94013585,5.670000076,0.05056762695,-1.006622314,0.009735107422,-0.009607087316,-0.01377919548,0.005422728612
1490542067.0,40.44154833,-79.94017798,3.019999981,0.06739807129,-0.995010376,0.05535888672,-0.01704210045,0.004317516759,0.0002269013249
1490542068.0,40.44154833,-79.94017798,3.019999981,0.05320739746,-0.9990386963,0.07633972168,-0.00751863639,-0.01806475431,0.001120658187
1490542068.0,40.44154833,-79.94017798,3.019999981,0.07960510254,-0.9613342285,0.2490539551,0.001011202266,-0.007475226864,-0.004295678838
1490542068.0,40.44154833,-79.94017798,3.019999981,0.0735168457,-0.9567260742,0.265045166,-0.008477640698,0.004312989385,0.005449892855
1490542068.0,40.44154833,-79.94017798,3.019999981,0.04145812988,-0.9360198975,0.3061981201,-0.01389557562,-0.006348443407,-0.001970472891
1490542068.0,40.44154015,-79.94019326,1.169999957,0.07553100586,-0.9303283691,0.3638916016,-0.008579373452,-0.004253334577,-0.00523257891
1490542069.0,40.44154015,-79.94019326,1.169999957,0.1011657715,-0.9758605957,0.379486084,0.05539268541,0.004023503775,-0.009227320545
1490542069.0,40.44154015,-79.94019326,1.169999957,0.1262817383,-0.9563903809,0.3989257813,0.03507489682,0.04970949964,-0.04192241662
1490542069.0,40.44154015,-79.94019326,1.169999957,0.1146392822,-0.9035491943,0.3964233398,0.002133990981,0.0721990961,-0.0371857183
1490542069.0,40.44154015,-79.94019326,1.169999957,0.1140136719,-0.916305542,0.434463501,-0.04158366252,0.05747980476,-0.03026442894
1490542069.0,40.44153206,-79.94020836,2.109999895,0.09651184082,-0.9219055176,0.5057678223,-0.009578591493,0.01278690166,-0.004114317568
1490542070.0,40.44153206,-79.94020836,2.109999895,0.08062744141,-0.9063873291,0.450592041,-0.02765453108,0.01606898139,0.001455417536
1490542070.0,40.44153206,-79.94020836,2.109999895,0.09675598145,-0.9003448486,0.3997344971,-0.008625978771,-0.003224289132,-0.01269448997
1490542070.0,40.44153206,-79.94020836,2.109999895,0.06423950195,-0.8949737549,0.4640808105,0.002015480313,-0.04150137085,0.004144677604
1490542070.0,40.44153206,-79.94020836,2.109999895,0.07922363281,-0.934677124,0.400390625,-0.009633718927,-0.02547819583,0.007529022718
1490542070.0,40.44149894,-79.94027061,3.730000019,0.1041259766,-0.9411010742,0.3914642334,-0.005468801298,0.01372513331,-0.02762550262
1490542071.0,40.44149894,-79.94027061,3.730000019,-0.01579284668,-0.9177856445,0.3827514648,0.006310626519,-0.05317480485,0.01472728083
1490542071.0,40.44149894,-79.94027061,3.730000019,0.04843139648,-0.9551696777,0.3817443848,-0.02038889499,-0.06267190362,0.01291260286
1490542071.0,40.44149894,-79.94027061,3.730000019,-0.03694152832,-0.9163665771,0.3790130615,-0.005494900277,-0.07973530935,0.01694942244
1490542071.0,40.44149526,-79.9402815,5.170000076,0.03117370605,-0.9671173096,0.3545227051,-0.00327302498,-0.05207172353,0.01591824647
1490542071.0,40.44149526,-79.9402815,5.170000076,-0.008941650391,-0.9006652832,0.3896331787,0.03083514437,-0.09891619447,0.03883741081
1490542072.0,40.44149526,-79.9402815,5.170000076,-0.04403686523,-0.9679870605,0.3307495117,-0.01924453467,-0.126331041,0.05754105746
1490542072.0,40.44149526,-79.9402815,5.170000076,-0.04571533203,-0.8961334229,0.2978210449,-0.07591820056,-0.1528007318,0.04647136207
1490542072.0,40.44149526,-79.9402815,5.170000076,-0.0309753418,-0.9129486084,0.2923126221,-0.0216272649,-0.1466749286,0.03086443914
1490542072.0,40.44149526,-79.9402815,5.170000076,-0.02418518066,-0.9427337646,0.2593688965,-0.07490939514,-0.1507210693,0.03686560634
1490542072.0,40.44149331,-79.94029538,6.050000191,-0.08935546875,-0.9018707275,0.2808990479,-0.0004026699568,-0.1723017288,0.02946894273
1490542073.0,40.44149331,-79.94029538,6.050000191,-0.1846008301,-0.9371643066,0.3535461426,0.01665061577,-0.2020955772,0.04411313293
1490542073.0,40.44149331,-79.94029538,6.050000191,-0.04476928711,-0.9530639648,0.3762054443,-0.02618180299,-0.1681011249,-0.00111906029
1490542073.0,40.44149331,-79.94029538,6.050000191,-0.1027069092,-0.9634857178,0.2937164307,-0.01321646954,-0.1680244258,0.02430986706
1490542073.0,40.44149331,-79.94029538,6.050000191,-0.1471862793,-0.9663696289,0.3451385498,0.005936718702,-0.2254562937,0.04846154236
1490542073.0,40.44152432,-79.94045702,6.949999809,-0.2483215332,-0.9980316162,0.3352050781,0.123616481,-0.402903516,0.2001187127
1490542074.0,40.44152432,-79.94045702,6.949999809,-0.1521759033,-0.9466094971,0.2894897461,-0.04203187254,-0.2486460352,0.06181596364
1490542074.0,40.44152432,-79.94045702,6.949999809,-0.06713867188,-0.9187469482,0.3554382324,0.01878434043,-0.1606900802,0.02285285163
1490542074.0,40.44152432,-79.94045702,6.949999809,-0.1420288086,-1.004501343,0.3711700439,-0.06550044701,-0.3122851989,0.09289452093
1490542074.0,40.44154499,-79.94054858,7.809999943,0.01078796387,-0.9613952637,0.3454437256,-0.01847887586,-0.08513433583,-0.008491489136
1490542075.0,40.44154499,-79.94054858,7.809999943,0.01365661621,-0.9640197754,0.3303222656,-0.01514646238,0.01051469262,-0.03817375107
1490542075.0,40.44154499,-79.94054858,7.809999943,0.01324462891,-0.9791564941,0.348739624,-0.03326953992,0.01057807585,-0.037942855
1490542075.0,40.44154499,-79.94054858,7.809999943,-0.04331970215,-0.9319915771,0.3393859863,-0.01080018348,0.03391801964,-0.03817534896
1490542075.0,40.44156558,-79.94064698,9.159999847,-0.02931213379,-0.9491577148,0.4037322998,0.02327496266,-0.01825889875,-0.01740082825
1490542075.0,40.44156558,-79.94064698,9.159999847,0.124130249,-0.9004364014,0.2819519043,0.06804589638,0.009189769974,-0.03283757519
1490542076.0,40.44156558,-79.94064698,9.159999847,0.1310577393,-0.979095459,0.248046875,-0.05139980799,-0.04670305709,-0.009050486649
1490542076.0,40.44156558,-79.94064698,9.159999847,0.07484436035,-0.946395874,0.2870178223,-5.33e-06,0.04353176486,-0.02336098277
1490542076.0,40.44156558,-79.94064698,9.159999847,0.05445861816,-0.949798584,0.2702331543,-0.03735403008,0.03938921779,-0.02609418499
1490542076.0,40.44156558,-79.94064698,9.159999847,0.09646606445,-0.9496917725,0.2489624023,-0.004228300863,4.02e-05,0.005385976989
1490542076.0,40.4415875,-79.9407552,9.930000305,-0.003768920898,-0.9485473633,0.2606048584,-0.04578799494,0.07665003723,-0.03123328695
1490542077.0,40.4415875,-79.9407552,9.930000305,0.09915161133,-1.015869141,0.2359771729,-0.01400849365,0.1252404766,-0.08697964015
1490542077.0,40.4415875,-79.9407552,9.930000305,0.1086273193,-1.060775757,0.2146148682,-0.02846519731,-0.04002518066,0.068520738
1490542077.0,40.4415875,-79.9407552,9.930000305,0.1092376709,-0.9599151611,0.2205505371,-0.0531540322,-0.07191387155,0.06023058385
1490542077.0,40.4415875,-79.9407552,9.930000305,0.1214904785,-0.9209289551,0.2691497803,-0.06054323896,-0.003878361495,0.03595347366
1490542077.0,40.44161141,-79.94087317,10.13000011,0.1610107422,-1.051651001,0.170791626,-0.01676886012,-0.02415993109,0.05561133093
1490542078.0,40.44161141,-79.94087317,10.13000011,0.04876708984,-0.9668884277,0.2031097412,-0.04277010079,0.04359488178,-0.04094530281
1490542078.0,40.44161141,-79.94087317,10.13000011,0.1034393311,-0.8619384766,0.3608551025,-0.0370965024,0.0002822950755,0.03246526527
1490542078.0,40.44161141,-79.94087317,10.13000011,0.1510772705,-1.078353882,0.260925293,0.0553197148,0.08148660409,-0.06023617648
1490542078.0,40.44161141,-79.94087317,10.13000011,0.0645904541,-1.136413574,0.220123291,-0.08536762874,0.05864147562,-0.04143479182
1490542078.0,40.44163406,-79.94098497,10.05000019,0.1186218262,-1.005950928,0.1941070557,-0.03924940183,0.09265536907,-0.0184828706
1490542079.0,40.44163406,-79.94098497,10.05000019,0.1103820801,-0.8877563477,0.1025848389,-0.1033306503,0.01634381961,0.004552407567
1490542079.0,40.44163406,-79.94098497,10.05000019,0.1131744385,-0.9351501465,0.2253417969,-0.09264205326,0.03862489055,-0.002997387807
1490542079.0,40.44163406,-79.94098497,10.05000019,0.07800292969,-0.9508056641,0.1094512939,0.02253779967,0.05311967742,-0.005497030806
1490542079.0,40.44163406,-79.94098497,10.05000019,0.08294677734,-1.023468018,0.06184387207,-0.1175292936,0.05862682824,-0.06768557068
1490542079.0,40.44165532,-79.94108985,9.989999771,0.0513458252,-1.052459717,0.1342773438,-0.007643804961,0.04449582918,-0.04992175358
1490542080.0,40.44165532,-79.94108985,9.989999771,0.09745788574,-0.9883575439,0.05133056641,0.008518387063,-0.02339746807,0.01050190944
1490542080.0,40.44165532,-79.94108985,9.989999771,0.05000305176,-0.9943237305,0.06367492676,-0.01805197113,0.05108182655,-0.01564900088
1490542080.0,40.44165532,-79.94108985,9.989999771,0.1890106201,-0.9447937012,0.02555847168,-0.009649697894,0.04777764259,-0.0328261236
1490542080.0,40.44165532,-79.94108985,9.989999771,0.02128601074,-1.045059204,0.12059021,-0.0242659249,0.01512995078,0.03020317624
1490542080.0,40.44167871,-79.94120527,9.130000114,-0.01435852051,-1.0103302,0.02734375,-0.04474350316,0.1053008569,-0.04930975916
1490542081.0,40.44167871,-79.94120527,9.130000114,0.1018676758,-1.006332397,0.03330993652,-0.003111637418,0.002195776319,0.01177516676
1490542081.0,40.44167871,-79.94120527,9.130000114,0.113067627,-1.020294189,-0.01718139648,-0.02110235585,0.02571282032,0.01952310132
1490542081.0,40.44167871,-79.94120527,9.130000114,0.1368103027,-0.9904937744,-0.03771972656,0.03974608137,-0.002049302459,0.04534484493
1490542081.0,40.44167871,-79.94120527,9.130000114,0.1468505859,-1.072998047,-0.01280212402,0.01921710411,-0.006418484543,0.007205448645
1490542081.0,40.4416972,-79.94129627,7.570000172,0.1035614014,-1.060241699,-0.01312255859,0.01058047269,-0.008588428199,-0.007619303879
1490542082.0,40.4416972,-79.94129627,7.570000172,0.1517028809,-1.081344604,-0.05711364746,-0.02020140845,-0.05829260152,0.03851410305
1490542082.0,40.4416972,-79.94129627,7.570000172,0.03005981445,-0.9888153076,0.03903198242,0.04170590162,0.05728512768,-0.01106357012
1490542082.0,40.4416972,-79.94129627,7.570000172,0.06327819824,-0.9940338135,0.00537109375,-0.03627065615,0.03408846195,-0.02078810284
1490542082.0,40.4416972,-79.94129627,7.570000172,0.1098632813,-1.064376831,-0.01010131836,-0.001165931925,0.06364395741,-0.0478274437
1490542082.0,40.44171249,-79.94137145,5.539999962,0.06809997559,-0.997177124,0.07096862793,0.006509564652,0.01386122084,0.00954663356
1490542083.0,40.44171249,-79.94137145,5.539999962,0.1018066406,-1.004623413,0.1088104248,0.00955142725,0.02860581222,-0.02138411829
1490542083.0,40.44171249,-79.94137145,5.539999962,0.09646606445,-0.9727172852,0.1920471191,0.003199255418,0.008484298601,-0.004286890407
1490542083.0,40.44171249,-79.94137145,5.539999962,0.1742858887,-0.9567718506,0.2517242432,-0.004189152395,0.08289142156,-0.03174860862
1490542083.0,40.44171249,-79.94137145,5.539999962,0.1885375977,-0.9086914063,0.2575836182,-0.04876993641,0.1384002208,-0.03105352357
1490542083.0,40.44172221,-79.94141927,4.849999905,0.2276763916,-0.965637207,0.2129364014,-0.01135332204,0.1680747596,-0.03146178617
1490542084.0,40.44172221,-79.94141927,4.849999905,0.2125091553,-0.9687347412,0.2167053223,0.002580869412,0.1956872127,-0.03477502488
1490542084.0,40.44172221,-79.94141927,4.849999905,0.1959533691,-0.9287109375,0.3437194824,0.03239335992,0.21360789,-0.05004319373
1490542084.0,40.44172221,-79.94141927,4.849999905,0.212890625,-0.9170074463,0.3712768555,0.0008010788559,0.2819517941,-0.02708940829
1490542084.0,40.44172221,-79.94141927,4.849999905,0.1525878906,-0.853012085,0.3415374756,-0.06650445874,0.2268698996,-0.01889406267
1490542084.0,40.44173341,-79.94147434,4.570000172,0.2832489014,-0.8864898682,0.3977661133,0.002835733929,0.3360296769,-0.06964752146
1490542085.0,40.44173341,-79.94147434,4.570000172,0.3203125,-0.9371337891,0.3178253174,-0.04805514397,0.3916215667,-0.05607498728
1490542085.0,40.44173341,-79.94147434,4.570000172,0.4121856689,-1.023620605,0.2712860107,0.05401556481,0.4346081825,-0.1201940526
1490542085.0,40.44173341,-79.94147434,4.570000172,0.2418823242,-0.8976287842,0.3304443359,0.01341221188,0.3815923684,-0.1059354882
1490542085.0,40.44173341,-79.94147434,4.570000172,0.2189178467,-0.8549804688,0.3047180176,-0.07414746475,0.2490676136,-0.05713652329
1490542085.0,40.44174508,-79.94153171,5.840000153,0.2283782959,-0.8883514404,0.4745025635,-0.1154110153,0.3078345241,-0.04048004857
1490542086.0,40.44174508,-79.94153171,5.840000153,0.3017578125,-1.000335693,0.3435211182,0.1061405516,0.4003676541,-0.1198699459
1490542086.0,40.44174508,-79.94153171,5.840000153,0.2008514404,-0.8992614746,0.2545776367,-0.0468404762,0.2423106413,-0.1150858433
1490542086.0,40.44174508,-79.94153171,5.840000153,0.3635559082,-0.9453430176,0.4424133301,0.07970015563,0.3358371303,-0.05463048871
1490542086.0,40.44167646,-79.94160326,6.920000076,0.2100524902,-1.072280884,0.5161590576,-0.007243531849,0.3410313597,-0.1441563772
1490542086.0,40.44167646,-79.94160326,6.920000076,0.2436981201,-0.9537658691,0.4379577637,0.03019332254,0.2454228113,-0.07660236665
1490542087.0,40.44167646,-79.94160326,6.920000076,0.2437286377,-0.7886505127,0.4716644287,-0.1273515644,0.2652513772,-0.05002348634
1490542087.0,40.44167646,-79.94160326,6.920000076,0.2933197021,-0.927734375,0.467880249,0.05674477229,0.1634973183,-0.04940190454
1490542087.0,40.44167646,-79.94160326,6.920000076,0.3088989258,-0.940536499,0.4689941406,0.05495992173,0.2380780793,-0.03641100474
1490542087.0,40.44167646,-79.94160326,6.920000076,0.454208374,-0.8259124756,0.4338378906,-0.04882746069,0.3963872935,-0.1733592701
1490542087.0,40.44160905,-79.94163458,8.43999958,0.2935028076,-0.9412536621,0.4824066162,-0.02104722841,0.2359962863,-0.08130364492
1490542088.0,40.44160905,-79.94163458,8.43999958,0.1793518066,-0.9035949707,0.5233764648,0.04954251944,0.1743249323,-0.01622664052
1490542088.0,40.44160905,-79.94163458,8.43999958,0.1954956055,-0.8729858398,0.4400939941,0.02813230218,0.1817697991,-0.03299949538
1490542088.0,40.44160905,-79.94163458,8.43999958,0.1380004883,-0.9134063721,0.4706115723,-0.01900671438,0.3081296023,-0.1323516493
1490542088.0,40.44160905,-79.94163458,8.43999958,0.1575469971,-0.881362915,0.4019012451,0.09386204736,0.3288769588,-0.1646669786
1490542088.0,40.44152589,-79.94167322,10.21000004,0.4542541504,-0.9668273926,0.4066314697,-0.03948162948,-0.01050670313,0.0004785700479
1490542089.0,40.44152589,-79.94167322,10.21000004,0.08709716797,-0.8992767334,0.5301361084,0.01957876139,0.0394952116,0.03716574459
1490542089.0,40.44152589,-79.94167322,10.21000004,0.1539306641,-0.8390350342,0.3687438965,-0.03831063755,-0.03379711213,0.02813682955
1490542089.0,40.44152589,-79.94167322,10.21000004,-0.0438079834,-0.8810882568,0.3898010254,0.06432173191,0.1593044375,-0.03031263216
1490542089.0,40.44152589,-79.94167322,10.21000004,0.1658935547,-0.9100646973,0.2652587891,-0.08081948223,0.2297828652,-0.08802173508
1490542089.0,40.44142061,-79.94172215,12.02000046,-0.04179382324,-0.9407806396,0.4912109375,-0.08727924577,0.03969095394,0.001202417232
1490542090.0,40.44142061,-79.94172215,12.02000046,-0.04090881348,-0.9544830322,0.4934387207,-0.06538726266,0.01696540141,-0.06098026369
1490542090.0,40.44142061,-79.94172215,12.02000046,0.08366394043,-1.043838501,0.4436798096,0.02121261071,-0.00652208151,-0.01308197991
1490542090.0,40.44142061,-79.94172215,12.02000046,0.07940673828,-0.9450531006,0.5053405762,-0.04809562402,0.05317347327,-0.0451211394
1490542090.0,40.44142061,-79.94172215,12.02000046,-0.05004882813,-0.8528900146,0.3868560791,0.01497735165,0.1316531022,-0.06067373385
1490542090.0,40.44132167,-79.94176983,12.78999996,-0.07684326172,-0.9452056885,0.5101013184,-0.004310326224,0.1199706134,-0.06898625856
1490542091.0,40.44132167,-79.94176983,12.78999996,0.08152770996,-0.9569854736,0.3399200439,-0.002241316373,-0.01068779809,-0.01066010121
1490542091.0,40.44132167,-79.94176983,12.78999996,0.06402587891,-1.097915649,0.3305053711,-0.103422263,0.002475408233,-0.00187672962
1490542091.0,40.44132167,-79.94176983,12.78999996,0.1742095947,-0.9820709229,0.2705078125,-0.03609009383,-0.1027620654,0.0770050366
1490542091.0,40.44132167,-79.94176983,12.78999996,0.1867828369,-0.9911193848,0.4069213867,-0.004093811228,-0.1315335262,0.09359413335
1490542091.0,40.44119833,-79.94183155,14.10000038,0.01023864746,-0.9915618896,0.4463348389,-0.02568618871,-0.02865108596,0.0002612561029
1490542092.0,40.44119833,-79.94183155,14.10000038,-0.01713562012,-0.8687438965,0.3583984375,-0.007352188821,0.04788656588,-0.008327704729
1490542092.0,40.44119833,-79.94183155,14.10000038,0.03411865234,-0.985534668,0.3307647705,0.01179620573,0.009564476739,0.00520381677
1490542092.0,40.44119833,-79.94183155,14.10000038,0.09280395508,-1.040817261,0.1690979004,0.08195212464,0.04315359599,-0.04360074073
1490542092.0,40.44119833,-79.94183155,14.10000038,-0.04292297363,-0.8928222656,0.2749176025,-0.07038788024,0.1234002323,-0.06707064679
1490542092.0,40.44108088,-79.94189115,14.11999989,-0.02423095703,-0.9115600586,0.2102813721,0.0138242029,0.09655476953,-0.05540759911
1490542093.0,40.44108088,-79.94189115,14.11999989,-0.05096435547,-0.9307861328,0.1916503906,-0.006523679406,0.07426171436,-0.05733253195
1490542093.0,40.44108088,-79.94189115,14.11999989,0.05130004883,-0.9635925293,0.1196746826,-0.04459463245,0.03107669308,0.01130325461
1490542093.0,40.44108088,-79.94189115,14.11999989,-0.02743530273,-1.176345825,0.2763671875,0.07072397117,-0.0806900526,0.0948910928
1490542093.0,40.44108088,-79.94189115,14.11999989,0.07266235352,-0.9987030029,0.140411377,0.02970276827,-0.2550498723,0.1099427466
1490542093.0,40.4409654,-79.94194976,13.47999954,-0.05645751953,-0.9193267822,0.1776123047,-0.02123924233,0.05216253732,-0.01453952797
1490542094.0,40.4409654,-79.94194976,13.47999954,-0.04750061035,-1.05871582,0.1770019531,0.02563905076,-0.06057679479,0.03899160784
1490542094.0,40.4409654,-79.94194976,13.47999954,0.03172302246,-0.9759216309,0.1577301025,0.04029309466,-0.04170643425,-0.01127289458
1490542094.0,40.4409654,-79.94194976,13.47999954,0.1225738525,-1.021408081,0.1612243652,-0.02980556629,-0.1060486725,0.06198773753
1490542094.0,40.4409654,-79.94194976,13.47999954,0.04930114746,-0.9266967773,0.1140899658,-0.05753812798,0.004469316941,0.002875681345
1490542094.0,40.44085735,-79.94200459,11.72999954,-0.02304077148,-1.006195068,0.1300811768,0.0158527327,-0.07023474848,0.01563302191
1490542095.0,40.44085735,-79.94200459,11.72999954,0.09260559082,-1.015304565,0.1600036621,-0.03732393636,-0.03598037159,0.01745515673
1490542095.0,40.44085735,-79.94200459,11.72999954,0.06355285645,-1.020568848,0.1285400391,0.007565241709,-0.01163401922,0.02120515386
1490542095.0,40.44085735,-79.94200459,11.72999954,0.07737731934,-1.040008545,0.09017944336,0.02564970341,-0.03296141218,0.0262579694
1490542095.0,40.44085735,-79.94200459,11.72999954,0.02394104004,-0.9619445801,0.1806945801,-0.03103647934,-0.04457412611,0.005624862538
1490542095.0,40.44076192,-79.94205302,10.03999996,0.07453918457,-0.9849853516,0.1317596436,0.02979517996,-0.06279147955,0.02400386985
1490542096.0,40.44076192,-79.94205302,10.03999996,0.09292602539,-1.009689331,0.130569458,-0.04285558826,-0.007433681551,-0.02719806526
1490542096.0,40.44076192,-79.94205302,10.03999996,0.1058959961,-1.059417725,0.185043335,-0.001171258247,-0.03617291814,0.003131078494
1490542096.0,40.44076192,-79.94205302,10.03999996,0.03684997559,-0.9956665039,0.08027648926,0.02132872454,0.002054362465,-0.0002668487412
1490542096.0,40.44076192,-79.94205302,10.03999996,0.1013793945,-1.025619507,0.06463623047,0.0332146788,0.0106201538,0.01879685729
1490542096.0,40.44068725,-79.94209091,8.239999771,0.0445098877,-1.029495239,0.06365966797,-0.01806848273,0.005411010703,0.005574528794
1490542097.0,40.44068725,-79.94209091,8.239999771,0.01243591309,-1.018981934,0.05439758301,0.008523713385,0.01907995131,-0.01072881077
1490542097.0,40.44068725,-79.94209091,8.239999771,-0.05039978027,-0.9348754883,0.1009979248,0.004256796686,0.02652588341,-0.01492302317
1490542097.0,40.44068725,-79.94209091,8.239999771,0.05168151855,-0.978515625,0.07344055176,-0.01496856322,-0.004225904018,-0.00408475648
1490542097.0,40.44068725,-79.94209091,8.239999771,0.03985595703,-1.010559082,0.07527160645,-0.01806262378,0.02346644395,-0.002915362445
1490542097.0,40.44064678,-79.94211145,5.989999771,0.05906677246,-1.030944824,0.08207702637,0.01385536189,0.02968066403,-0.01610440143
1490542098.0,40.44064678,-79.94211145,5.989999771,0.09669494629,-0.9882202148,0.09634399414,-0.03081197486,-0.003004312026,0.0174479662
1490542098.0,40.44064678,-79.94211145,5.989999771,0.05149841309,-1.005142212,0.1014404297,-0.01589987066,0.009676595821,0.008755941032
1490542098.0,40.44064678,-79.94211145,5.989999771,0.0251159668,-1.027740479,0.08157348633,0.01164573713,0.01370595855,-0.01931217896
1490542098.0,40.44064678,-79.94211145,5.989999771,0.07586669922,-0.9608917236,0.2404174805,-0.006413158221,0.0095671399,-0.007361243569
1490542098.0,40.44061326,-79.94212846,3.329999924,0.02082824707,-0.9574737549,0.221282959,0.007446464724,-0.01277944481,0.004141481811
1490542099.0,40.44061326,-79.94212846,3.329999924,0.002670288086,-0.9521484375,0.2784881592,-0.0042900862,-0.06265192991,0.02870381654
1490542099.0,40.44061326,-79.94212846,3.329999924,-0.02153015137,-0.9445953369,0.3374786377,0.03289936053,-0.06711618684,0.0122239094
1490542099.0,40.44061326,-79.94212846,3.329999924,0.02395629883,-0.7948608398,0.3491210938,-0.01201325336,-0.2210237283,0.07216127921
1490542099.0,40.44061326,-79.94212846,3.329999924,0.08073425293,-0.9219665527,0.3273468018,-0.04495549078,-0.2091534867,0.08220565758
1490542099.0,40.44060576,-79.94213227,2.900000095,-0.07551574707,-0.9499816895,0.4143371582,-0.01219354937,-0.2253979704,0.04762610872
1490542100.0,40.44060576,-79.94213227,2.900000095,-0.111038208,-0.8783416748,0.453994751,-0.03349431071,-0.291143162,0.08507068628
1490542100.0,40.44060576,-79.94213227,2.900000095,-0.1032409668,-0.9157867432,0.3884735107,0.02708754408,-0.2946705188,0.05869740201
1490542100.0,40.44060576,-79.94213227,2.900000095,-0.001754760742,-0.8966674805,0.378692627,0.005837649109,-0.3561325484,0.1014832154
1490542100.0,40.44060576,-79.94213227,2.900000095,-0.0484161377,-0.9403076172,0.3795166016,-0.009973538282,-0.3559501218,0.1283451898
1490542100.0,40.44056379,-79.94215095,3.960000038,-0.1574859619,-0.9443206787,0.3540802002,-0.01141564001,-0.3732004815,0.08140191556
1490542101.0,40.44056379,-79.94215095,3.960000038,-0.08563232422,-0.9550018311,0.4114837646,0.004912200631,-0.3815140714,0.1355618237
1490542101.0,40.44056379,-79.94215095,3.960000038,-0.1655578613,-0.9150085449,0.39793396,0.02410027628,-0.3614069389,0.1246995886
1490542101.0,40.44056379,-79.94215095,3.960000038,-0.03773498535,-0.9648742676,0.5315246582,-0.0102350607,-0.3487012636,0.08570877968
1490542101.0,40.44053529,-79.94216361,5.119999886,-0.1852264404,-0.9219055176,0.3862609863,0.004802212078,-0.3699112112,0.1131952653
1490542101.0,40.44053529,-79.94216361,5.119999886,-0.1578369141,-0.9555358887,0.3890075684,-0.0198037985,-0.3433403204,0.0869093327
1490542102.0,40.44053529,-79.94216361,5.119999886,-0.2285766602,-0.8049926758,0.2985992432,0.02616688929,-0.3965012768,0.133123966
1490542102.0,40.44053529,-79.94216361,5.119999886,-0.1976165771,-1.019073486,0.4230957031,-0.007090666402,-0.3894082135,0.2572672203
1490542102.0,40.44053529,-79.94216361,5.119999886,-0.4142913818,-0.7286987305,0.3513031006,0.1010147654,-0.4366470986,0.0275706415
1490542102.0,40.44053529,-79.94216361,5.119999886,0.00553894043,-0.8531036377,0.4802093506,-0.003326288202,-0.5055156455,0.2430893496
1490542102.0,40.4404882,-79.94231207,5.869999886,-0.1769714355,-1.041641235,0.3804473877,-0.2128486228,-0.3225519512,0.06595398334
1490542103.0,40.4404882,-79.94231207,5.869999886,0.006271362305,-0.9953460693,0.3214263916,0.0799443675,-0.3854275867,0.0386206295
1490542103.0,40.4404882,-79.94231207,5.869999886,0.07780456543,-0.8827819824,0.4376068115,-0.02404381727,-0.3794109731,0.1092750922
1490542103.0,40.4404882,-79.94231207,5.869999886,-0.03280639648,-0.8925476074,0.4350585938,-0.04930017178,-0.2771530441,0.1055658414
1490542103.0,40.4404882,-79.94231207,5.869999886,0.1030883789,-0.9209136963,0.3844451904,-0.04485908435,-0.185725126,0.08439104757
1490542103.0,40.44050389,-79.94237553,7.119999886,-0.04978942871,-0.8599395752,0.3807983398,-0.08200831734,-0.08991417736,0.05949022506
1490542104.0,40.44050389,-79.94237553,7.119999886,0.05836486816,-0.8738708496,0.3592224121,-0.01166144978,-0.1103446177,0.06707890259
1490542104.0,40.44050389,-79.94237553,7.119999886,-0.1551971436,-0.8692779541,0.4130249023,-0.04586309608,0.07978271362,-0.04402205282
1490542104.0,40.44050389,-79.94237553,7.119999886,0.08781433105,-0.9077606201,0.3816680908,-0.03329031257,-0.1264141317,0.02999305283
1490542104.0,40.44050389,-79.94237553,7.119999886,0.1084899902,-0.9163665771,0.2970733643,-0.0830259112,-0.01873294142,0.02980716418
1490542104.0,40.44052408,-79.942465,8.369999886,0.05293273926,-0.9610290527,0.3442840576,-0.02965642927,-0.09213978108,0.07694751232
1490542105.0,40.44052408,-79.942465,8.369999886,0.01634216309,-0.9139251709,0.290802002,-0.003294063952,-0.07650888969,0.02546008634
1490542105.0,40.44052408,-79.942465,8.369999886,0.01861572266,-0.9332275391,0.3401489258,0.02668833623,-0.02236602578,0.01667138842
1490542105.0,40.44052408,-79.942465,8.369999886,0.01258850098,-0.927947998,0.2899169922,-0.01620054154,0.02008343041,-0.04133758644
1490542105.0,40.44052408,-79.942465,8.369999886,0.0798034668,-0.9565582275,0.19921875,-0.03525066545,0.01069179283,-0.01552276705
1490542105.0,40.44054451,-79.94256001,9.029999733,0.07006835938,-1.025604248,0.2535858154,-0.06399283152,0.0554190507,-0.03211665748
1490542106.0,40.44054451,-79.94256001,9.029999733,0.05172729492,-0.9776306152,0.1714477539,-0.004212588212,0.01066968859,0.002210956337
1490542106.0,40.44054451,-79.94256001,9.029999733,0.09675598145,-0.9635467529,0.2305450439,0.03629355934,0.09122498524,-0.04077619208
1490542106.0,40.44054451,-79.94256001,9.029999733,0.09265136719,-0.9981384277,0.2142791748,0.03948322737,0.02324992895,-0.006847786111
1490542106.0,40.44054451,-79.94256001,9.029999733,0.1132659912,-0.9459991455,0.149017334,-0.05862070297,0.07348114185,-0.03534281083
1490542106.0,40.44056705,-79.94266476,9.289999962,0.1002502441,-0.931350708,0.2339324951,-0.01607723718,0.02866493439,-0.02745612557
1490542107.0,40.44056705,-79.94266476,9.289999962,0.1414794922,-0.9769744873,0.1768493652,-0.05543423072,0.008689362005,-0.003539873721
1490542107.0,40.44056705,-79.94266476,9.289999962,0.2013092041,-1.016647339,0.2398681641,-0.07352774717,-0.07086458608,0.04236343609
1490542107.0,40.44056705,-79.94266476,9.289999962,0.1064453125,-1.024719238,0.2167510986,-0.07668439201,-0.02622681042,0.02544357474
1490542107.0,40.44056705,-79.94266476,9.289999962,0.08563232422,-0.9612884521,0.1481018066,-0.05230714697,-0.01367053851,-0.00256462413
1490542107.0,40.44058969,-79.94277001,9.279999733,0.2534332275,-0.9323272705,0.1055297852,-0.1267965616,0.03128282174,-0.004712197233
1490542108.0,40.44058969,-79.94277001,9.279999733,0.08126831055,-1.062255859,0.2146911621,-0.03518781485,0.1105491484,-0.05795065164
1490542108.0,40.44058969,-79.94277001,9.279999733,0.2576599121,-1.051574707,0.1248626709,-0.09798515336,0.05137663849,-0.01143135266
1490542108.0,40.44058969,-79.94277001,9.279999733,0.09991455078,-0.9964141846,0.1725463867,-0.04359141967,-0.04011466287,0.03885365609
1490542108.0,40.44058969,-79.94277001,9.279999733,0.07612609863,-0.9352264404,0.1162414551,-0.03636386679,0.03614655284,-0.03571192495
1490542108.0,40.44061115,-79.94286979,8.68999958,-0.007080078125,-1.015518188,0.1360778809,-0.0160162508,0.02764600896,-0.01786155512
1490542109.0,40.44061115,-79.94286979,8.68999958,0.01846313477,-0.9915771484,0.1236114502,0.01493367581,0.04136581595,-0.02035693706
1490542109.0,40.44061115,-79.94286979,8.68999958,0.1104278564,-0.992401123,0.07041931152,-0.004203799781,0.08075743058,-0.03281973201
1490542109.0,40.44061115,-79.94286979,8.68999958,0.09059143066,-1.026779175,0.07168579102,-0.01378265759,0.06275073318,-0.02100861258
1490542109.0,40.44061115,-79.94286979,8.68999958,0.0435333252,-1.03175354,-0.01245117188,-0.03184554768,0.05542357808,-0.007998538018
1490542109.0,40.44063028,-79.9429587,7.269999981,0.05851745605,-1.028457642,0.002212524414,-0.006484530938,0.07110373794,-0.04987541458
1490542110.0,40.44063028,-79.9429587,7.269999981,0.06689453125,-1.063583374,0.05043029785,0.01271899105,0.04237701821,-0.03312333237
1490542110.0,40.44063028,-79.9429587,7.269999981,0.08460998535,-1.028076172,-0.03033447266,0.02137373196,0.04562154737,-0.0161635236
1490542110.0,40.44063028,-79.9429587,7.269999981,0.1090393066,-1.029052734,-0.01071166992,-0.02868703863,-0.003016828883,0.01635447225
1490542110.0,40.44063028,-79.9429587,7.269999981,0.08457946777,-1.042068481,0.02156066895,-0.02766278687,0.007568437502,0.004635231877
1490542110.0,40.44064495,-79.94302691,5.110000134,0.1073150635,-1.045135498,0.0213470459,-0.03399418605,0.03842994716,-0.001611745092
1490542111.0,40.44064495,-79.94302691,5.110000134,0.06130981445,-1.023010254,0.07035827637,-0.008448345926,0.03725069943,-0.007271761356
1490542111.0,40.44064495,-79.94302691,5.110000134,0.08448791504,-1.007446289,0.07684326172,-0.01074186026,0.01166038452,-0.0179654184
1490542111.0,40.44064495,-79.94302691,5.110000134,0.09725952148,-1.009597778,0.1245117188,-0.02027890644,0.0117344204,-0.0093125417
1490542111.0,40.44064495,-79.94302691,5.110000134,0.09474182129,-0.983291626,0.2274169922,-0.00110947291,0.0265192255,-0.02018676106
1490542111.0,40.44065258,-79.94306241,2.890000105,0.0990447998,-0.9467315674,0.2614898682,-0.01065903595,0.01278051007,-0.006233394847
1490542112.0,40.44065258,-79.94306241,2.890000105,0.08660888672,-0.9856109619,0.2580718994,-0.02875787872,0.005428054934,0.001445031207
1490542112.0,40.44065258,-79.94306241,2.890000105,0.07518005371,-0.9181518555,0.3867950439,-0.01600932658,-0.003142530086,-0.000869788412
1490542112.0,40.44065258,-79.94306241,2.890000105,0.1122283936,-0.9181976318,0.416015625,-0.04579971285,-0.01680028542,0.01547429751
1490542112.0,40.44065258,-79.94306241,2.890000105,0.125793457,-0.9216003418,0.4377746582,-0.04372644194,0.029871879,-0.01750362626
1490542112.0,40.44066021,-79.94309785,2.960000038,0.05606079102,-0.9186248779,0.3923339844,-0.006438191935,0.03928109345,-0.02648806652
1490542113.0,40.44066021,-79.94309785,2.960000038,0.1521148682,-0.8880157471,0.4810791016,0.04368356504,-0.02777836807,0.01004411205
1490542113.0,40.44066021,-79.94309785,2.960000038,0.1112213135,-0.906036377,0.4720306396,-0.05336788403,0.05748033739,-0.03864566321
1490542113.0,40.44066021,-79.94309785,2.960000038,0.09982299805,-0.8910827637,0.48487854,-0.004408064236,-8.63e-05,-0.02127226552
1490542113.0,40.44066021,-79.94309785,2.960000038,0.1549377441,-0.9210357666,0.498550415,-0.02036572549,0.03609568647,-0.03484932708
1490542113.0,40.44067199,-79.94315264,4.869999886,0.1111602783,-0.9445800781,0.405960083,-0.007346862499,0.0330245291,0.0001693770453
1490542114.0,40.44067199,-79.94315264,4.869999886,0.1200561523,-0.8964538574,0.4132385254,-0.003217098597,-0.0647744693,0.03081810013
1490542114.0,40.44067199,-79.94315264,4.869999886,0.1758575439,-0.8593444824,0.4258728027,7.19e-05,-0.02861912802,0.025527198
1490542114.0,40.44067199,-79.94315264,4.869999886,0.06611633301,-0.8964996338,0.5372467041,-0.03524906756,-0.005234709439,-0.007028082117
1490542114.0,40.44067199,-79.94315264,4.869999886,0.1067810059,-0.8766326904,0.4519042969,-0.005134840898,-0.01789511094,0.03841503346
1490542114.0,40.44068617,-79.94321853,7.260000229,0.04747009277,-0.8778381348,0.4280853271,0.01183908263,0.03614069389,-0.002200570009
1490542115.0,40.44068617,-79.94321853,7.260000229,-0.005035400391,-0.9023895264,0.4522857666,-0.03827148908,-0.008285360467,0.02073004593
1490542115.0,40.44068617,-79.94321853,7.260000229,-0.00700378418,-0.8975219727,0.469909668,0.0321384954,-0.04141348653,0.04428490682
1490542115.0,40.44068617,-79.94321853,7.260000229,0.003829956055,-0.8720550537,0.3870544434,-0.1021612563,-0.04835954329,0.05344378412
1490542115.0,40.44068617,-79.94321853,7.260000229,-0.004608154297,-0.9859619141,0.4257507324,0.038380945,-0.007565241709,0.003759584511
1490542115.0,40.44070745,-79.94331749,9.789999962,-0.02522277832,-0.9761657715,0.3791809082,-0.03530419499,0.04250937732,-0.03997644481
1490542116.0,40.44070745,-79.94331749,9.789999962,-0.003570556641,-0.9306488037,0.3838806152,0.0874401007,-0.04701065219,0.02650537707
1490542116.0,40.44070745,-79.94331749,9.789999962,-0.02442932129,-0.9459991455,0.3274230957,0.01492595265,-0.04889617025,0.02529150824
1490542116.0,40.44070745,-79.94331749,9.789999962,-0.1263580322,-0.9483642578,0.443649292,0.02333967748,-0.1902317272,0.08137954501
1490542116.0,40.44070745,-79.94331749,9.789999962,-0.253112793,-0.9180450439,0.3773956299,-0.05024719187,-0.1878708349,0.07698985659
1490542116.0,40.44073395,-79.94344068,10.97000027,0.006866455078,-0.9251251221,0.3139953613,0.06910796502,0.005997705091,-0.03179201815
1490542117.0,40.44073395,-79.94344068,10.97000027,0.05694580078,-0.9899597168,0.220703125,-0.01494912215,0.03613776441,-0.02212128128
1490542117.0,40.44073395,-79.94344068,10.97000027,0.05268859863,-0.9684753418,0.3700408936,0.05547604235,0.03806109935,-0.01448227001
1490542117.0,40.44073395,-79.94344068,10.97000027,0.03186035156,-0.94190979,0.1403198242,-0.01276399847,0.0574044373,-0.02529949772
1490542117.0,40.44073395,-79.94344068,10.97000027,0.08522033691,-0.9245605469,0.2077178955,-0.01807966801,0.05955707041,-0.02416046373
1490542117.0,40.44076029,-79.94356313,11.72000027,0.02561950684,-0.8735961914,0.3212738037,-0.1139036661,-0.05894800546,0.05676820811
1490542118.0,40.44076029,-79.94356313,11.72000027,0.02833557129,-1.035583496,0.2154541016,0.0606977023,-0.02574451194,0.002367283893
1490542118.0,40.44076029,-79.94356313,11.72000027,0.1239318848,-0.9445953369,0.1353759766,-0.07071491642,0.009553025146,-0.0566638122
1490542118.0,40.44076029,-79.94356313,11.72000027,0.02339172363,-0.9594268799,0.1320648193,-0.004510329622,-0.01290035232,-0.02983166527
1490542118.0,40.44076029,-79.94356313,11.72000027,0.07926940918,-1.019012451,0.1711273193,-0.005403287536,-0.00852744181,-0.006349242355
1490542118.0,40.44078781,-79.94369107,11.40999985,0.07409667969,-1.051544189,0.1570281982,0.06705014045,0.08251005689,-0.06038318298
1490542119.0,40.44078781,-79.94369107,11.40999985,0.160736084,-1.128982544,0.09600830078,0.04175996379,0.05838501321,-0.003596865368
1490542119.0,40.44078781,-79.94369107,11.40999985,-0.1130218506,-0.9461212158,0.2746276855,0.02286803165,-0.06557421657,0.1051328114
1490542119.0,40.44078781,-79.94369107,11.40999985,-0.004302978516,-0.9649810791,0.05003356934,-0.1650475443,-0.1001617549,0.0829185858
1490542119.0,40.44078781,-79.94369107,11.40999985,0.002456665039,-0.9620361328,0.1765899658,-0.005626460435,-0.1254870853,0.02111167691
1490542119.0,40.44081529,-79.94381879,11.09000015,-0.03646850586,-0.969543457,0.1712493896,-0.03960546647,-0.1380148614,0.04817578517
1490542120.0,40.44081529,-79.94381879,11.09000015,-0.07060241699,-1.032669067,0.1693267822,0.01782533612,-0.05230315223,-0.01740961668
1490542120.0,40.44081529,-79.94381879,11.09000015,0.04629516602,-1.040237427,0.1827392578,0.04661037908,-0.04178446487,-0.02308401401
1490542120.0,40.44081529,-79.94381879,11.09000015,0.1104278564,-0.9246826172,0.1654968262,-0.08115690474,0.004434962163,-0.02135109509
1490542120.0,40.44081529,-79.94381879,11.09000015,0.100769043,-0.9129333496,0.2145385742,-0.06709115313,-0.008209993008,0.0157651147
1490542120.0,40.44083875,-79.94392785,10.06999969,0.1357574463,-0.8444213867,0.2776031494,-0.1725760344,0.06121781766,-0.01045903255
1490542121.0,40.44083875,-79.94392785,10.06999969,0.1597442627,-1.114105225,0.2324523926,0.111982728,0.1376803684,-0.06616064464
1490542121.0,40.44083875,-79.94392785,10.06999969,0.09503173828,-0.9839324951,0.1871643066,0.02886946516,0.110391223,-0.04490329282
1490542121.0,40.44083875,-79.94392785,10.06999969,0.2786254883,-0.9624176025,0.2613525391,-0.02447711358,0.2231023256,-0.1090162329
1490542121.0,40.44083875,-79.94392785,10.06999969,0.267364502,-0.9764709473,0.2763366699,-0.0500162958,0.2200388914,-0.1001668149
1490542121.0,40.44090425,-79.94402398,9.399999619,0.1100463867,-0.947265625,0.2597961426,-0.03725655839,0.04264333432,-0.01329103805
1490542122.0,40.44090425,-79.94402398,9.399999619,0.1345367432,-0.8966369629,0.3192749023,-0.007507451113,0.07113782641,-0.04346385425
1490542122.0,40.44090425,-79.94402398,9.399999619,0.05625915527,-0.8895721436,0.2477264404,-0.06825601979,0.006589992117,-0.006580671054
1490542122.0,40.44090425,-79.94402398,9.399999619,0.1373138428,-0.9349212646,0.2946777344,-0.06269374154,0.05027009505,0.005179315688
1490542122.0,40.44090425,-79.94402398,9.399999619,0.131149292,-1.069671631,0.4316101074,0.03415983467,0.1071589444,-0.04924371277
1490542122.0,40.44092516,-79.94413697,9.149999619,0.06773376465,-1.057159424,0.2246856689,0.07271175461,0.08697191698,-0.01352299938
1490542123.0,40.44092516,-79.94413697,9.149999619,0.07452392578,-0.9794769287,0.2223358154,-0.02149543842,0.01587963063,-0.03381495531
1490542123.0,40.44092516,-79.94413697,9.149999619,0.1343994141,-0.9038085938,0.1885528564,-0.1184371653,0.116081333,-0.07394053714
1490542123.0,40.44092516,-79.94413697,9.149999619,0.2096557617,-1.001266479,0.1692810059,0.07994809592,0.1473116904,-0.0785275658
1490542123.0,40.44092516,-79.94413697,9.149999619,0.2696990967,-1.079849243,0.08741760254,-0.01268090785,0.2039970742,-0.08894851514
1490542123.0,40.44094276,-79.94424895,9.699999809,0.02853393555,-0.787322998,0.2759399414,-0.07047443298,0.006536728896,-0.01934946322
1490542124.0,40.44094276,-79.94424895,9.699999809,0.05718994141,-0.9534301758,0.2708740234,-0.1424836457,-0.03959081908,0.07743833291
1490542124.0,40.44094276,-79.94424895,9.699999809,-0.009002685547,-0.9765014648,0.1022949219,0.04071254253,-0.07963757134,0.07074820594
1490542124.0,40.44094276,-79.94424895,9.699999809,0.04788208008,-0.9243011475,0.1993560791,0.01624688055,0.005433381256,0.03499713252
1490542124.0,40.44094276,-79.94424895,9.699999809,0.1768798828,-0.8859863281,0.1397857666,-0.08395242494,0.09073869203,-0.006187588477
1490542124.0,40.44093356,-79.94437169,9.619999886,0.1542663574,-0.9965515137,0.1334381104,-0.02437671241,0.1350401104,-0.04843437811
1490542125.0,40.44093356,-79.94437169,9.619999886,0.08100891113,-0.9925231934,0.1520385742,-0.02014361785,0.05855066183,-0.01347239932
1490542125.0,40.44093356,-79.94437169,9.619999886,0.01342773438,-0.928817749,0.1996612549,-0.01487535258,-0.06362345107,0.04056686762
1490542125.0,40.44093356,-79.94437169,9.619999886,-0.03327941895,-0.9860229492,0.1719055176,-0.01592277384,-0.05829739521,0.04059243397
1490542125.0,40.44093356,-79.94437169,9.619999886,0.08311462402,-0.9880981445,0.1767883301,-0.04627775026,0.04126461583,-0.08569519756
1490542125.0,40.44095502,-79.94447472,8.449999809,0.0029296875,-0.9834442139,0.2047119141,0.005225654691,-0.03194754675,0.0009265137432
1490542126.0,40.44095502,-79.94447472,8.449999809,0.02862548828,-0.8966064453,0.2399749756,-0.03876097809,0.01579254526,-0.06452120268
1490542126.0,40.44095502,-79.94447472,8.449999809,0.02682495117,-0.9854431152,0.1772460938,-0.0663979323,-0.02865108596,-0.02907985489
1490542126.0,40.44095502,-79.94447472,8.449999809,-0.05000305176,-1.002655029,0.2483673096,0.01163481817,-0.07337275119,0.02421079747
1490542126.0,40.44095502,-79.94447472,8.449999809,0.04170227051,-1.027999878,0.1470184326,0.05734797828,0.02725212743,-0.04758962342
1490542126.0,40.44097491,-79.9445702,8.149999619,0.01606750488,-0.9060516357,0.2370605469,-0.08223894709,-0.008314655239,-0.01710095631
1490542127.0,40.44097491,-79.9445702,8.149999619,-0.003875732422,-1.028213501,0.2645874023,-0.001249288867,-0.02773309433,-0.01284469225
1490542127.0,40.44097491,-79.9445702,8.149999619,-0.064453125,-0.8553314209,0.2340545654,-0.04279566714,-0.1029572751,0.03123435221
1490542127.0,40.44097491,-79.9445702,8.149999619,0.1110992432,-0.9792785645,0.2495880127,-0.0234145123,0.05213963414,-0.02091034193
1490542127.0,40.44097491,-79.9445702,8.149999619,-0.02822875977,-0.991897583,0.2330169678,0.03299736485,-0.03094460029,0.008040083331
1490542127.0,40.44099554,-79.94466923,8.06000042,0.05651855469,-0.8955383301,0.2029876709,-0.03516011798,-0.01260500776,0.01001641518
1490542128.0,40.44099554,-79.94466923,8.06000042,-0.01029968262,-0.9682312012,0.2851409912,-0.06073232339,-0.07834034557,0.04644899152
1490542128.0,40.44099554,-79.94466923,8.06000042,0.01499938965,-0.9671478271,0.2342987061,0.007493868991,-0.007436877344,0.008418784838
1490542128.0,40.44099554,-79.94466923,8.06000042,0.06274414063,-0.9683532715,0.173034668,0.01392247355,0.02017131473,-0.001197357226
1490542128.0,40.44099554,-79.94466923,8.06000042,0.01275634766,-0.9059753418,0.2585754395,-0.07457490211,-0.006075203079,0.01159966444
1490542128.0,40.44101474,-79.94476138,8.430000305,0.0909576416,-0.9297485352,0.2265014648,-0.005282380022,0.009608951529,0.002222141614
1490542129.0,40.44101474,-79.94476138,8.430000305,0.05850219727,-0.9572906494,0.245880127,-0.01821362501,-0.03397927235,0.004419515829
1490542129.0,40.44101474,-79.94476138,8.430000305,0.08198547363,-0.9339904785,0.2531433105,-0.05777301879,0.02341717547,-0.04186702286
1490542129.0,40.44101474,-79.94476138,8.430000305,0.06063842773,-0.9496917725,0.2370300293,-0.02144483836,-0.01063080644,-0.01254828242
1490542129.0,40.44101474,-79.94476138,8.430000305,0.07092285156,-0.9172210693,0.274887085,-0.01931004843,-0.01806928168,-0.00832690578
1490542129.0,40.44103663,-79.94486649,8.159999847,0.09144592285,-0.9560699463,0.2900695801,-0.008710400977,0.01158208758,-0.03292119845
1490542130.0,40.44103663,-79.94486649,8.159999847,0.05171203613,-0.9608001709,0.2893829346,-0.07559249596,-0.0209031514,0.02650830654
1490542130.0,40.44103663,-79.94486649,8.159999847,0.1543731689,-0.9605712891,0.2454071045,-0.01700881093,0.06911329135,-0.02841779304
1490542130.0,40.44103663,-79.94486649,8.159999847,0.05242919922,-0.9840698242,0.2478179932,0.009584983079,0.009516273523,-0.006498645692
1490542130.0,40.44103663,-79.94486649,8.159999847,-0.001083374023,-1.011138916,0.291519165,-0.01804078586,-0.06040368932,0.04381379362
1490542130.0,40.44105509,-79.9449551,8.289999962,0.06610107422,-0.9119415283,0.2828979492,-0.05105892337,0.005567071943,0.01452621217
1490542131.0,40.44105509,-79.9449551,8.289999962,0.07159423828,-0.9452972412,0.2494354248,-0.0352746339,-0.008438225914,-0.009167932053
1490542131.0,40.44105509,-79.9449551,8.289999962,0.1135406494,-0.9642944336,0.2923736572,-0.05135107214,0.05526804947,-0.05467256665
1490542131.0,40.44105509,-79.9449551,8.289999962,0.09997558594,-0.9641571045,0.2588043213,-0.05654290468,0.01291047233,-0.01204734182
1490542131.0,40.44105509,-79.9449551,8.289999962,0.08305358887,-0.9438934326,0.2589416504,-0.04257116266,0.02462172323,-0.001534247104
1490542131.0,40.44107577,-79.9450544,8.760000229,0.01826477051,-0.9438171387,0.2651367188,-0.03956258957,-0.02542945998,-0.003820304584
1490542132.0,40.44107577,-79.9450544,8.760000229,0.007659912109,-0.9646606445,0.2476348877,0.02112419377,-0.02357376934,-0.01738564823
1490542132.0,40.44107577,-79.9450544,8.760000229,0.03730773926,-0.9708404541,0.3195343018,-0.05441104423,-0.04656031165,0.01871483193
1490542132.0,40.44107577,-79.9450544,8.760000229,0.2018890381,-0.8863220215,0.2421875,-0.09279305449,0.09585808659,-0.0551181135
1490542132.0,40.44107577,-79.9450544,8.760000229,0.1208343506,-0.922164917,0.2235565186,-0.03514520427,0.04899231036,-0.01970179943
1490542132.0,40.44109909,-79.94516636,9.010000229,0.08544921875,-0.9161376953,0.1997680664,-0.03826296696,0.002339054385,0.01648869557
1490542133.0,40.44109909,-79.94516636,9.010000229,0.06755065918,-0.9526977539,0.2386169434,-0.01598961918,-0.01799444685,0.009759952763
1490542133.0,40.44109909,-79.94516636,9.010000229,0.05137634277,-1.008499146,0.2586669922,0.002084988817,-0.003226153345,-0.00536600328
1490542133.0,40.44109909,-79.94516636,9.010000229,0.05987548828,-0.9326171875,0.2481689453,-0.01158315285,-0.001981658167,0.02253753336
1490542133.0,40.44109909,-79.94516636,9.010000229,0.04487609863,-0.9722137451,0.253036499,-0.02028556434,-0.01269262576,0.002361957571
1490542133.0,40.4411188,-79.94526099,8.979999542,0.06854248047,-0.9932250977,0.2100219727,0.02766758056,0.001991511863,-0.008878979074
1490542134.0,40.4411188,-79.94526099,8.979999542,0.06733703613,-0.9689483643,0.1184692383,-0.01693610664,-0.01047367994,0.02365259891
1490542134.0,40.4411188,-79.94526099,8.979999542,0.1145782471,-1.010803223,0.2239532471,-0.002084456185,0.03614362337,-0.01162096973
1490542134.0,40.4411188,-79.94526099,8.979999542,0.1166381836,-0.9892578125,0.1943817139,-0.01386761243,0.07330936796,-0.03911224903
1490542134.0,40.4411188,-79.94526099,8.979999542,0.05541992188,-0.9755706787,0.161529541,-0.0297909189,-0.01790549727,0.01846715795
1490542134.0,40.44113919,-79.94535886,8.81000042,0.0295715332,-0.9944152832,0.2546081543,-0.01276266689,-0.01798539211,0.0139845252
1490542135.0,40.44113919,-79.94535886,8.81000042,0.02792358398,-0.9726257324,0.1844024658,-0.004338822048,-0.02127439605,6.39e-06
1490542135.0,40.44113919,-79.94535886,8.81000042,0.1025085449,-1.007339478,0.1845550537,-0.07038202129,0.05544648126,-0.03096883505
1490542135.0,40.44113919,-79.94535886,8.81000042,0.09521484375,-0.9773406982,0.1539001465,0.05234629544,0.03918229017,-0.004842159494
1490542135.0,40.44113919,-79.94535886,8.81000042,0.09124755859,-0.983505249,0.1888275146,-0.002079129863,0.02128158659,-0.003123887959
1490542135.0,40.44115938,-79.94545579,8.930000305,0.114151001,-0.9140625,0.1700592041,-0.1043650221,0.03973036872,-0.002845587625
1490542136.0,40.44115938,-79.94545579,8.930000305,0.1237487793,-0.9503479004,0.1887054443,-0.03747147549,0.07753287513,-0.06332943809
1490542136.0,40.44115938,-79.94545579,8.930000305,0.09558105469,-0.9897003174,0.275390625,-0.07248112486,0.003446929399,0.000930774801
1490542136.0,40.44115938,-79.94545579,8.930000305,0.0735168457,-0.9276580811,0.1732788086,-0.01709110261,-0.01376827652,0.002318814361
1490542136.0,40.44115938,-79.94545579,8.930000305,0.07272338867,-0.9566650391,0.1967163086,-0.01924373572,-0.005280515809,-0.005099154539
1490542136.0,40.44118107,-79.94555993,8.93999958,0.08453369141,-0.950088501,0.1883239746,-0.04356265753,0.01724503332,0.01339117291
1490542137.0,40.44118107,-79.94555993,8.93999958,0.05987548828,-0.9248352051,0.2037658691,-0.06065429277,-0.0007709851356,0.01783305929
1490542137.0,40.44118107,-79.94555993,8.93999958,0.06303405762,-0.9903411865,0.2018127441,-0.006473345662,-0.01171204984,-0.005276521068
1490542137.0,40.44118107,-79.94555993,8.93999958,0.100402832,-0.9499206543,0.1548919678,-0.06297816714,0.01821469028,-0.02048450247
1490542137.0,40.44118107,-79.94555993,8.93999958,0.1377105713,-1.030654907,0.1866760254,-0.04495602341,0.07329605215,-0.06431028032
1490542137.0,40.44120101,-79.94565567,8.75,0.1549682617,-1.066268921,0.2097320557,0.02006159249,0.118719194,-0.09062763821
1490542138.0,40.44120101,-79.94565567,8.75,0.1232147217,-0.9650115967,0.2073364258,-0.0276052626,0.03627864563,-0.001698031511
1490542138.0,40.44120101,-79.94565567,8.75,0.08992004395,-0.9850769043,0.162612915,0.02881566931,0.02540602417,-0.008839830606
1490542138.0,40.44120101,-79.94565567,8.75,0.05773925781,-0.9542541504,0.2514343262,-0.04147047818,-0.0146457881,0.02395540032
1490542138.0,40.44120101,-79.94565567,8.75,0.08282470703,-0.9588165283,0.1648101807,-0.07890173993,-0.01778458976,0.008428638534
1490542138.0,40.44121955,-79.94574463,8.569999695,0.08508300781,-0.9359588623,0.2262878418,0.000109988553,-0.01160286024,0.02236655842
1490542139.0,40.44121955,-79.94574463,8.569999695,0.09671020508,-0.9524078369,0.2394256592,-0.04811053772,0.04891561132,-0.04513072678
1490542139.0,40.44121955,-79.94574463,8.569999695,0.04672241211,-0.9591827393,0.2391662598,-0.01707885207,-0.002079396179,-0.001920139146
1490542139.0,40.44121955,-79.94574463,8.569999695,0.01350402832,-0.9732971191,0.1832733154,-0.02253513651,0.05412821652,-0.04971003228
1490542139.0,40.44121955,-79.94574463,8.569999695,0.1125030518,-0.9906158447,0.1854095459,0.02116920119,0.01999341557,-0.03328232309
1490542139.0,40.44124062,-79.94584578,8.470000267,0.0920715332,-0.9636688232,0.1664428711,0.02442544825,0.05294018036,-0.04177940487
1490542140.0,40.44124062,-79.94584578,8.470000267,0.08645629883,-0.9767913818,0.2032928467,0.01607830245,0.008500277567,0.00834608054
1490542140.0,40.44124062,-79.94584578,8.470000267,0.09365844727,-0.9486846924,0.1997833252,-0.02134976351,0.002178199456,-0.005055212381
1490542140.0,40.44124062,-79.94584578,8.470000267,0.104095459,-0.9883880615,0.2781982422,-0.06737025241,0.002212021601,-0.03112942367
1490542140.0,40.44124062,-79.94584578,8.470000267,0.08158874512,-0.959854126,0.2312011719,-0.04282576086,0.05842149852,-0.05690669249
1490542140.0,40.44126145,-79.94594579,8.869999886,0.07313537598,-0.9167327881,0.1781616211,0.04880535645,0.0293957058,-0.05067516185
1490542141.0,40.44126145,-79.94594579,8.869999886,0.03964233398,-0.9363250732,0.2052612305,-0.01054531897,-0.02642761276,0.0309994614
1490542141.0,40.44126145,-79.94594579,8.869999886,0.04347229004,-0.9441833496,0.1693725586,-0.004267981963,0.0276201763,-0.01481196935
1490542141.0,40.44126145,-79.94594579,8.869999886,0.09986877441,-1.023025513,0.2456817627,0.006205697972,0.02745133188,-0.04267236278
1490542141.0,40.44126145,-79.94594579,8.869999886,0.104019165,-0.9489135742,0.1684875488,0.007439007873,-0.01490837578,0.004136688121
1490542141.0,40.44127974,-79.9460336,8.920000076,0.1860961914,-0.986618042,0.2037200928,0.002150236264,-0.05627232752,0.03183569399
1490542142.0,40.44127974,-79.9460336,8.920000076,0.1054840088,-1.007781982,0.1213226318,-0.0373444427,-0.02750006773,0.01001002359
1490542142.0,40.44127974,-79.9460336,8.920000076,0.1238098145,-0.9299621582,0.1136627197,-0.03526930758,0.03403919347,-0.03039865226
1490542142.0,40.44127974,-79.9460336,8.920000076,0.08041381836,-0.991394043,0.176071167,-0.02470428122,0.01694516138,-0.0359044715
1490542142.0,40.44127974,-79.9460336,8.920000076,0.1256713867,-0.9675750732,0.142578125,-0.01388172718,-0.01058606533,0.002285258531
1490542142.0,40.44129955,-79.94612869,8.680000305,0.09858703613,-0.9864654541,0.1377410889,-0.04588520032,-0.01048939259,-0.0005062669232
1490542143.0,40.44129955,-79.94612869,8.680000305,0.1406860352,-1.004867554,0.102935791,0.01386894401,0.05198889922,-0.02565103499
1490542143.0,40.44129955,-79.94612869,8.680000305,0.05926513672,-0.9603881836,0.1677093506,-0.01484898729,-0.02537859361,0.02465820853
1490542143.0,40.44129955,-79.94612869,8.680000305,0.05783081055,-0.9345855713,0.1711425781,-0.03822568271,-0.01568601882,0.03137656501
1490542143.0,40.44129955,-79.94612869,8.680000305,0.1010284424,-0.9295806885,0.1846618652,-0.0139432462,0.01485484624,-0.0200501409
1490542143.0,40.44131844,-79.94621938,8.739999771,0.157043457,-1.044998169,0.1665802002,-0.05222086055,0.07239936581,-0.0343603707
1490542144.0,40.44131844,-79.94621938,8.739999771,0.09606933594,-0.9364776611,0.1861114502,-0.03297206482,-0.02531521037,0.0248891046
1490542144.0,40.44131844,-79.94621938,8.739999771,0.08219909668,-0.9570159912,0.1828918457,-0.03728878263,-0.01365695639,0.01110751227
1490542144.0,40.44131844,-79.94621938,8.739999771,0.09425354004,-1.021255493,0.1231079102,0.02341291441,-0.007543403788,-0.00244824399
1490542144.0,40.44131844,-79.94621938,8.739999771,0.1242370605,-0.9852142334,0.1758117676,-0.03206206268,0.04890016499,-0.036803821
1490542144.0,40.44136496,-79.94630445,8.329999924,0.08166503906,-0.9985809326,0.09782409668,0.002106826738,0.02758262573,-0.01809245118
1490542145.0,40.44136496,-79.94630445,8.329999924,0.09617614746,-0.9761505127,-0.009674072266,0.01698803828,-0.005417402289,-0.007693606073
1490542145.0,40.44136496,-79.94630445,8.329999924,0.0994720459,-1.053268433,0.01905822754,-0.005322593755,0.06161090024,-0.0307166337
1490542145.0,40.44136496,-79.94630445,8.329999924,0.07341003418,-1.025848389,0.01483154297,0.001031175974,0.0371361835,-0.02445527566
1490542145.0,40.44136496,-79.94630445,8.329999924,0.09828186035,-1.005569458,-0.0438079834,0.01597896654,-0.009620935754,0.002973685673
1490542145.0,40.4413857,-79.94640193,7.630000114,0.1075286865,-1.012496948,-0.01165771484,-0.01499998852,0.003184874348,-0.01259861617
1490542146.0,40.4413857,-79.94640193,7.630000114,0.09979248047,-0.9941711426,0.03063964844,-0.01819045551,0.007448861569,-0.01361461212
1490542146.0,40.4413857,-79.94640193,7.630000114,0.1192779541,-1.002212524,0.05122375488,-0.003215767016,0.0318540698,-0.01908128289
1490542146.0,40.4413857,-79.94640193,7.630000114,0.1065826416,-0.9664154053,0.05256652832,-0.02544091158,0.006562295242,0.0184679569
1490542146.0,40.4413857,-79.94640193,7.630000114,0.07682800293,-0.9856567383,0.07542419434,-0.01383432291,-0.00524349787,0.006562561558
1490542146.0,40.44140234,-79.94646588,5.980000019,0.1015014648,-1.002868652,0.1624603271,-0.01484206307,-0.02749740457,0.02678607424
1490542147.0,40.44140234,-79.94646588,5.980000019,0.05914306641,-0.9360656738,0.1947631836,-0.02010873044,0.0214107499,0.01096929421
1490542147.0,40.44140234,-79.94646588,5.980000019,0.09706115723,-0.9785919189,0.2054290771,-0.02333648168,0.01503008224,0.009929329808
1490542147.0,40.44140234,-79.94646588,5.980000019,0.05514526367,-1.017837524,0.1796417236,-0.01696060772,0.05215774363,-0.01246119706
1490542147.0,40.44140234,-79.94646588,5.980000019,0.07777404785,-0.9840545654,0.1935577393,0.0001046622308,0.003259176542,0.01386947664
1490542147.0,40.44138122,-79.94653664,5.170000076,0.1193847656,-0.9645233154,0.2183532715,-0.01596032441,-0.01372646489,0.01190219954
1490542148.0,40.44138122,-79.94653664,5.170000076,0.08288574219,-0.9813842773,0.2015838623,-0.01816488916,0.01065237804,-0.01147476219
1490542148.0,40.44138122,-79.94653664,5.170000076,0.07284545898,-0.949798584,0.2196350098,0.01381355026,0.04026965884,-0.02781005968
1490542148.0,40.44138122,-79.94653664,5.170000076,0.09442138672,-0.9732208252,0.1750488281,-0.005420864399,0.02331544271,-0.02547127161
1490542148.0,40.44142937,-79.94658574,5.429999828,0.08120727539,-0.9669952393,0.1576538086,0.008491489136,-0.008550611312,-0.001194161433
1490542148.0,40.44142937,-79.94658574,5.429999828,0.10206604,-0.9719848633,0.1710968018,0.007584682785,5.99e-05,0.01803253006
1490542149.0,40.44142937,-79.94658574,5.429999828,0.1083526611,-0.9868011475,0.2108764648,0.005473594988,0.02450454414,0.008517854431
1490542149.0,40.44142937,-79.94658574,5.429999828,0.07014465332,-0.9412231445,0.20652771,-0.02550269691,0.001209607767,0.01205799447
1490542149.0,40.44142937,-79.94658574,5.429999828,0.1007843018,-0.9534301758,0.2163543701,-0.03727599946,0.03094939398,-0.01011841425
1490542149.0,40.44144446,-79.94664123,5.289999962,0.05783081055,-0.949508667,0.1591949463,0.00530581584,0.03394305336,-0.02131780558
1490542149.0,40.44144446,-79.94664123,5.289999962,0.08981323242,-1.001205444,0.1174621582,-0.03625760666,-0.005190500965,0.001516137609
1490542150.0,40.44144446,-79.94664123,5.289999962,0.08235168457,-0.9532928467,0.1462097168,-0.003266367077,0.001025050704,-0.0106201538
1490542150.0,40.44144446,-79.94664123,5.289999962,0.08268737793,-0.9967803955,0.1496276855,-0.01280154904,0.01596618337,-0.009398029171
1490542150.0,40.44144446,-79.94664123,5.289999962,0.09800720215,-0.9833526611,0.2216033936,-0.006374542385,0.002161421541,0.00221894582
1490542150.0,40.44145904,-79.9467046,5.210000038,0.09140014648,-0.9589538574,0.234664917,0.003158242737,-0.03189454985,0.01055064529
1490542150.0,40.44145904,-79.9467046,5.210000038,0.09735107422,-0.9755096436,0.2283477783,-0.0234970703,-0.004196076614,-0.003976099507
1490542151.0,40.44145904,-79.9467046,5.210000038,0.07002258301,-0.9853820801,0.1956787109,-0.02985510108,0.01496643269,-0.00811678237
1490542151.0,40.44145904,-79.9467046,5.210000038,0.1177062988,-1.043075562,0.1152038574,-0.03092249605,-0.02431892181,0.0120683808
1490542151.0,40.44145904,-79.9467046,5.210000038,0.0669708252,-0.9876861572,0.2057800293,0.02139556988,-0.009578857809,0.01570173147
1490542151.0,40.44146969,-79.94677342,5.199999809,0.08039855957,-1.001754761,0.1723327637,-0.006299174926,0.00115261612,0.01394617568
1490542151.0,40.44146969,-79.94677342,5.199999809,0.08670043945,-1.001083374,0.1861724854,-0.06709674577,0.03319790088,-0.006534332051
1490542152.0,40.44146969,-79.94677342,5.199999809,0.07600402832,-0.9581756592,0.1220703125,-0.03953276217,-0.01691373608,-0.003801129824
1490542152.0,40.44146969,-79.94677342,5.199999809,0.08882141113,-0.9590606689,0.155380249,-0.01819018919,-0.01909699554,0.0001877528569
1490542152.0,40.44146969,-79.94677342,5.199999809,0.09161376953,-0.9679260254,0.1589355469,-0.02568166134,0.007454720523,-0.01778485608
1490542152.0,40.44149014,-79.94682513,5.420000076,0.1101226807,-0.957901001,0.1133270264,-0.03736628062,-0.0009693906368,-0.006991330494
1490542152.0,40.44149014,-79.94682513,5.420000076,0.1045684814,-0.9974975586,0.1922607422,-0.01169473929,0.02554770434,-0.008323709987
1490542153.0,40.44149014,-79.94682513,5.420000076,0.09519958496,-0.9802856445,0.2118530273,0.005318066381,0.0456319337,-0.02555675908
1490542153.0,40.44149014,-79.94682513,5.420000076,0.08662414551,-0.9832611084,0.17137146,0.002049302459,0.05621187376,-0.04148698978
1490542153.0,40.44149014,-79.94682513,5.420000076,0.0924987793,-0.985534668,0.2559661865,-0.01488334207,0.04467878834,-0.01677045802
1490542153.0,40.44149878,-79.94688431,5.389999866,0.09886169434,-0.9307556152,0.2170410156,-0.0223100994,0.04260631638,-0.01028219865
1490542153.0,40.44149878,-79.94688431,5.389999866,0.06985473633,-0.9585723877,0.2597198486,0.01195972382,0.05215321626,0.00743234997
1490542154.0,40.44149878,-79.94688431,5.389999866,0.04125976563,-0.9783172607,0.1965026855,-0.03820624163,0.05334737769,-0.001523860776
1490542154.0,40.44149878,-79.94688431,5.389999866,-0.0288848877,-1.004486084,0.2460784912,-0.00421684927,-0.02331224692,0.01919553251
1490542154.0,40.44149878,-79.94688431,5.389999866,-0.01545715332,-0.9945373535,0.2225036621,0.01997424081,-0.09052510651,0.004869856369
1490542154.0,40.44149878,-79.94688431,5.389999866,0.02565002441,-1.001052856,0.1846008301,0.02769101638,-0.01179593942,0.001753158946
1490542154.0,40.44151156,-79.94695136,5.650000095,0.02368164063,-0.9633178711,0.1608886719,0.001124652928,-0.04880722067,0.03399871342
1490542155.0,40.44151156,-79.94695136,5.650000095,-0.001312255859,-0.9150695801,0.2068023682,-0.03885445504,-0.04161269098,-0.0486556868
1490542155.0,40.44151156,-79.94695136,5.650000095,0.132019043,-0.9386138916,0.1704406738,-0.06415634961,0.04150003927,-0.04920909167
1490542155.0,40.44151156,-79.94695136,5.650000095,0.09164428711,-0.9406738281,0.23777771,-0.01708577629,0.08604859903,-0.04863970783
1490542155.0,40.44151156,-79.94695136,5.650000095,0.1522216797,-0.9910583496,0.2464904785,-0.02376871273,0.09436405322,-0.09545754716
1490542155.0,40.44152145,-79.94701691,5.840000153,0.26612854,-1.03527832,0.2481536865,-0.008598814528,0.1274013655,-0.07637946006
1490542156.0,40.44152145,-79.94701691,5.840000153,0.263168335,-0.9763183594,0.1784515381,0.04714833762,0.1773335054,-0.05671281436
1490542156.0,40.44152145,-79.94701691,5.840000153,0.2326660156,-0.9435119629,0.260635376,-0.01566045247,0.1988529123,-0.05373087289
1490542156.0,40.44152145,-79.94701691,5.840000153,0.2332611084,-0.9429321289,0.2572937012,-0.03059918829,0.1744730041,-0.04293255362
1490542156.0,40.44152145,-79.94701691,5.840000153,0.1972351074,-0.9764099121,0.2215881348,-0.03485438708,0.1893600746,-0.0492426475
1490542156.0,40.44152476,-79.94708564,6.510000229,0.1935882568,-0.9546813965,0.2901916504,-0.01148434957,0.2125799098,-0.0740143067
1490542157.0,40.44152476,-79.94708564,6.510000229,0.245010376,-0.9648590088,0.2627410889,-0.02866520071,0.1998103187,-0.0855553816
1490542157.0,40.44152476,-79.94708564,6.510000229,0.3096466064,-0.9325256348,0.2917785645,-0.04129098112,0.2127146657,-0.06723602909
1490542157.0,40.44152476,-79.94708564,6.510000229,0.2850494385,-0.9584960938,0.2328796387,-0.03381735215,0.2158819632,-0.06732391341
1490542157.0,40.44152476,-79.94708564,6.510000229,0.2991790771,-0.903717041,0.2322387695,-0.02280917579,0.235202398,-0.0258297331
1490542157.0,40.44152769,-79.94716862,6.809999943,0.2628936768,-0.934677124,0.2474365234,-0.07080173548,0.2215523658,-0.02098437781
1490542158.0,40.44152769,-79.94716862,6.809999943,0.3226165771,-0.9527282715,0.2342376709,-0.035572109,0.243762863,-0.02564757288
1490542158.0,40.44152769,-79.94716862,6.809999943,0.3061065674,-0.9613952637,0.2215881348,-0.04279753135,0.155822887,0.05528962108
1490542158.0,40.44152769,-79.94716862,6.809999943,0.171081543,-0.9251251221,0.3039703369,-0.0101474427,0.1649838948,-0.009089635117
1490542158.0,40.44152769,-79.94716862,6.809999943,0.2464752197,-0.9253692627,0.3034820557,-0.0207742544,0.1480555113,0.004870122685
1490542158.0,40.44151734,-79.947248,7.53000021,0.3001251221,-0.8607940674,0.2189025879,0.02058623523,0.2316436158,-0.07117963804
1490542159.0,40.44151734,-79.947248,7.53000021,0.2116088867,-0.94581604,0.3248748779,-0.009341037523,0.2444355775,-0.0888981814
1490542159.0,40.44151734,-79.947248,7.53000021,0.1502838135,-0.929977417,0.298538208,-0.03170732962,0.1542721283,-0.03869919275
1490542159.0,40.44151734,-79.947248,7.53000021,0.160736084,-0.9567718506,0.2893218994,-0.0199377555,0.2381467889,-0.07598078485
1490542159.0,40.44151734,-79.947248,7.53000021,0.2125091553,-0.9517211914,0.3647155762,-0.09125374738,0.2002478761,-0.03890185931
1490542159.0,40.44147334,-79.94733936,8.579999924,0.1896820068,-0.9309844971,0.3695678711,-0.06863818341,0.1854644025,0.002366218629
1490542160.0,40.44147334,-79.94733936,8.579999924,0.1688537598,-0.9684295654,0.2790527344,0.08687098318,0.10306247,0.02259159553
1490542160.0,40.44147334,-79.94733936,8.579999924,0.2125701904,-0.9310302734,0.3612823486,-0.1149007537,0.08976211086,-0.0100614226
1490542160.0,40.44147334,-79.94733936,8.579999924,0.2304840088,-0.9850006104,0.3953399658,-0.0777091764,0.1022888217,-0.03503361782
1490542160.0,40.44147334,-79.94733936,8.579999924,0.1429290771,-0.9268341064,0.3463287354,0.03864726111,0.1380944899,-0.03216725754
1490542160.0,40.44142246,-79.94742293,9.210000038,0.1560821533,-0.9487762451,0.3353881836,0.06656704303,0.1158411158,0.00901613187
1490542161.0,40.44142246,-79.94742293,9.210000038,0.157333374,-0.9453887939,0.3464050293,-0.08821161847,0.1024374261,-0.0114385432
1490542161.0,40.44142246,-79.94742293,9.210000038,0.09410095215,-0.9444732666,0.2900848389,0.01499759168,0.09237919926,-0.0373031637
1490542161.0,40.44142246,-79.94742293,9.210000038,0.09994506836,-0.9206390381,0.2133636475,-0.07347927764,0.05765237759,-0.01706100889
1490542161.0,40.44136077,-79.94751505,10.10999966,0.06858825684,-0.9344940186,0.2806854248,-0.01465271232,0.04908845048,0.01522902038
1490542161.0,40.44136077,-79.94751505,10.10999966,0.0563659668,-0.9962463379,0.2617645264,0.05216733101,0.01675767484,-0.01982110905
1490542162.0,40.44136077,-79.94751505,10.10999966,0.09133911133,-0.9220428467,0.1966705322,0.04464390093,-0.01086702883,-0.01445670366
1490542162.0,40.44136077,-79.94751505,10.10999966,0.1209106445,-0.9417114258,0.30027771,-0.049791525,-0.05163443248,0.07409766364
1490542162.0,40.44136077,-79.94751505,10.10999966,0.03173828125,-0.9434661865,0.2611846924,-0.0319566015,0.001191498272,0.003608849593
1490542162.0,40.44136077,-79.94751505,10.10999966,0.06986999512,-0.9461517334,0.3046875,-0.0009683253724,0.005381715931,0.01175519305
1490542162.0,40.44129371,-79.9475987,10.18000031,0.1170501709,-0.9912872314,0.2655944824,-0.03608609909,0.04377491147,0.001626392478
1490542163.0,40.44129371,-79.9475987,10.18000031,0.1047210693,-0.964050293,0.2216949463,-0.02759594153,0.02460494531,0.005739911097
1490542163.0,40.44129371,-79.9475987,10.18000031,0.08113098145,-0.9994659424,0.1283416748,-0.03202318053,-0.01372113857,0.001442634362
1490542163.0,40.44129371,-79.9475987,10.18000031,-0.01054382324,-0.9677734375,0.262588501,0.001046089676,0.01272431737,-0.009581787286
1490542163.0,40.44122351,-79.94768679,10.98999977,0.003936767578,-0.994430542,0.1786804199,-0.03527037284,-0.03179574657,0.003575293763
1490542163.0,40.44122351,-79.94768679,10.98999977,0.04437255859,-1.040161133,0.1691741943,0.02660950666,0.03704164129,-0.02584757628
1490542164.0,40.44122351,-79.94768679,10.98999977,0.05174255371,-0.9817352295,0.1692657471,0.03967177918,0.06479444301,-0.0003563309539
1490542164.0,40.44122351,-79.94768679,10.98999977,0.02346801758,-0.9905700684,0.1788482666,-0.04687376571,0.005496498174,0.002742256974
1490542164.0,40.44122351,-79.94768679,10.98999977,0.0344543457,-0.9831390381,0.09869384766,0.04055142129,-0.04577201597,0.02923804666
1490542164.0,40.44122351,-79.94768679,10.98999977,-0.01518249512,-0.9809112549,0.08604431152,0.01055357477,-0.02241129952,-0.004451473762
1490542164.0,40.44115264,-79.94777078,9.979999542,0.07934570313,-0.9595336914,0.1190795898,-0.04054476338,0.01285960596,-0.01118474395
1490542165.0,40.44115264,-79.94777078,9.979999542,0.07843017578,-1.0128479,0.05108642578,-0.05947078399,-0.01024864282,0.04019082927
1490542165.0,40.44115264,-79.94777078,9.979999542,0.02798461914,-1.051010132,0.005142211914,-0.001006941208,0.01278743429,0.002175003662
1490542165.0,40.44115264,-79.94777078,9.979999542,0.03312683105,-1.001296997,0.03247070313,-0.004229099811,-0.06367085534,0.038298387
1490542165.0,40.44115264,-79.94777078,9.979999542,0.03311157227,-1.041595459,0.02708435059,-0.04596402989,-0.03709090977,0.001566471353
1490542165.0,40.44109586,-79.94784764,8.239999771,-0.02546691895,-1.0025177,0.0068359375,-0.0450202056,-0.008510930212,-0.03143861667
1490542166.0,40.44109586,-79.94784764,8.239999771,0.07987976074,-0.995300293,0.04853820801,-0.02676077421,0.01806768378,-0.02521161341
1490542166.0,40.44109586,-79.94784764,8.239999771,0.08984375,-0.989151001,0.07299804688,-0.008536496558,-0.00634684551,0.002226935304
1490542166.0,40.44109586,-79.94784764,8.239999771,0.07348632813,-0.9853210449,0.06831359863,-0.02450827256,0.00327915025,0.0003195793308
1490542166.0,40.44109586,-79.94784764,8.239999771,0.017578125,-0.9837646484,0.05596923828,-0.03212704381,-0.0106087022,-0.01561145031
1490542166.0,40.44104749,-79.94791252,6.53000021,0.05368041992,-1.027160645,0.07858276367,-0.01089126359,-0.004372377878,-0.03186365718
1490542167.0,40.44104749,-79.94791252,6.53000021,0.0451965332,-1.017150879,0.03979492188,-0.02779967335,-0.02332130167,0.000300404571
1490542167.0,40.44104749,-79.94791252,6.53000021,0.02798461914,-0.994430542,0.1140441895,-0.005513542405,-0.02771818063,-0.01279036377
1490542167.0,40.44104749,-79.94791252,6.53000021,0.04501342773,-0.9625549316,0.1793670654,0.01053732949,-0.008618788236,-0.01401728208
1490542167.0,40.44104749,-79.94791252,6.53000021,0.06855773926,-0.9496154785,0.1874389648,-0.03429885168,-0.01169101087,-0.02091833141
1490542167.0,40.44101807,-79.94797161,5.539999962,0.01336669922,-0.9521179199,0.2051086426,-0.01303164616,-0.04153519299,-0.0137927776
1490542168.0,40.44101807,-79.94797161,5.539999962,-0.02821350098,-0.9277954102,0.2082214355,0.01015330166,-0.03224954922,-0.05885586009
1490542168.0,40.44101807,-79.94797161,5.539999962,0.005813598633,-0.9675445557,0.1407623291,-0.06422585811,0.08923400601,-0.08429011377
1490542168.0,40.44101807,-79.94797161,5.539999962,0.03092956543,-0.9958496094,0.124786377,-0.001238369907,0.03067588733,-0.04150376769
1490542168.0,40.44101807,-79.94797161,5.539999962,0.2747497559,-1.021377563,-0.07205200195,-0.06526821936,0.07757415413,-0.07470592963
1490542168.0,40.44099821,-79.94800187,4.53000021,-0.003204345703,-1.018157959,0.0375213623,0.006357231838,0.03180533395,-0.02240251109
1490542169.0,40.44099821,-79.94800187,4.53000021,0.09800720215,-1.001571655,0.06396484375,-0.0001422128022,-0.01602770239,-0.01283190908
1490542169.0,40.44099821,-79.94800187,4.53000021,0.08283996582,-1.001800537,0.01985168457,-0.006543386798,0.003104446883,-0.02337057015
1490542169.0,40.44099821,-79.94800187,4.53000021,0.0895690918,-1.017333984,0.02850341797,-0.01189394374,-0.01494246424,-0.0169454277
1490542169.0,40.44099821,-79.94800187,4.53000021,0.09356689453,-1.013168335,0.05386352539,-0.002246642696,0.004174238693,-0.01915718299
1490542169.0,40.44097072,-79.94803238,3.25999999,0.09098815918,-1.006011963,0.06889343262,-0.001144626637,0.004195810297,-0.0138391166
1490542170.0,40.44097072,-79.94803238,3.25999999,0.07493591309,-0.9817047119,0.1095275879,0.002026399273,-0.01176211727,-0.009650496842
1490542170.0,40.44097072,-79.94803238,3.25999999,0.08666992188,-1.013427734,0.1155395508,-0.01192536905,-0.007531685879,-0.02545928739
1490542170.0,40.44097072,-79.94803238,3.25999999,0.1072998047,-0.9839782715,0.1479187012,-0.01393126198,0.02441985562,-0.0232275584
1490542170.0,40.44097072,-79.94803238,3.25999999,0.09834289551,-0.9998474121,0.1505737305,-0.0001179780363,0.005226187323,-0.02024828008
1490542170.0,40.44095693,-79.94805886,2.059999943,0.1004486084,-0.9568939209,0.2028961182,-0.01073227288,0.002110555164,-0.0115890118
1490542171.0,40.44095693,-79.94805886,2.059999943,0.09756469727,-0.9588165283,0.241897583,-0.0149235558,0.0106715528,-0.005117530351
1490542171.0,40.44095693,-79.94805886,2.059999943,0.09455871582,-0.9508209229,0.2499847412,-0.01178422151,5.33e-07,-0.008381234267
1490542171.0,40.44095693,-79.94805886,2.059999943,0.0968170166,-0.9539642334,0.2804412842,-0.007498662681,-0.002123072021,-0.004175037641
1490542171.0,40.44095693,-79.94805886,2.059999943,0.1041717529,-0.9397125244,0.289855957,-0.006418218227,-0.002116680434,-0.002055960362
1490542171.0,40.44094431,-79.94807756,1.25,0.08917236328,-0.9284515381,0.3201599121,-0.008565258698,-0.006367085534,-0.002038383498
1490542172.0,40.44094431,-79.94807756,1.25,0.09921264648,-0.9547119141,0.3214111328,-0.01389451036,0.002147040471,-0.006216616933
1490542172.0,40.44094431,-79.94807756,1.25,0.09265136719,-0.9296569824,0.2977905273,-0.01170991931,-0.009503756666,0.007592139636
1490542172.0,40.44094431,-79.94807756,1.25,0.09800720215,-0.9436035156,0.2885894775,-0.009605755736,-0.003159840633,0.0001150485591
1490542172.0,40.44094431,-79.94807756,1.25,0.09675598145,-0.9468383789,0.3124237061,-0.005237106284,-0.002039448763,0.01499173272
1490542172.0,40.44093086,-79.9481001,2.309999943,0.09437561035,-0.9607391357,0.295715332,-0.01061083273,-0.004175037641,0.00972320114
1490542173.0,40.44093086,-79.9481001,2.309999943,0.09996032715,-0.9487457275,0.2984161377,-0.01271206683,-0.01582610109,0.02038729709
1490542173.0,40.44093086,-79.9481001,2.309999943,0.06547546387,-0.9390106201,0.3292541504,0.008611864017,-0.02333168799,0.02436419555
1490542173.0,40.44093086,-79.9481001,2.309999943,0.03146362305,-0.9237976074,0.3676147461,-0.00856099764,-0.05839433427,0.02556874331
1490542173.0,40.44093086,-79.9481001,2.309999943,0.0260925293,-0.9085693359,0.401763916,0.01601571816,-0.08923320706,0.04971242912
1490542173.0,40.44091757,-79.94812575,2.950000048,-0.009796142578,-0.9318237305,0.3699035645,-0.007471232122,-0.1274010992,0.06485356518
1490542174.0,40.44091757,-79.94812575,2.950000048,-0.1057281494,-0.9342803955,0.3260803223,-0.02471759703,-0.1752575713,0.061764032
1490542174.0,40.44091757,-79.94812575,2.950000048,-0.117477417,-1.01890564,0.3721618652,0.02625876835,-0.2084906259,0.04930816127
1490542174.0,40.44091757,-79.94812575,2.950000048,-0.2535247803,-0.8718719482,0.3665313721,0.06085882355,-0.2472481419,-0.01733877659
1490542174.0,40.44091757,-79.94812575,2.950000048,-0.07356262207,-0.9417266846,0.4116516113,0.0101458448,-0.2637363049,0.06005055416
1490542174.0,40.44090932,-79.94816473,4.480000019,-0.2025146484,-0.903793335,0.397567749,0.05523103153,-0.2817256917,0.1148885031
1490542175.0,40.44090932,-79.94816473,4.480000019,-0.1122741699,-0.9647674561,0.3641815186,-0.0008716526248,-0.3000527674,0.02598233223
1490542175.0,40.44090932,-79.94816473,4.480000019,-0.08053588867,-0.9434509277,0.3860931396,-0.04094610176,-0.2921714085,0.08729602369
1490542175.0,40.44090932,-79.94816473,4.480000019,-0.1476898193,-0.9345855713,0.3671722412,-0.02047118667,-0.31757184,0.1328326162
1490542175.0,40.44090877,-79.94822524,5.159999847,-0.1951446533,-0.9754486084,0.3715820313,-0.005005144953,-0.3179971468,0.05478681626
1490542175.0,40.44090877,-79.94822524,5.159999847,-0.09059143066,-0.9580535889,0.4024505615,0.0006189186373,-0.2976340845,0.08782066642
1490542176.0,40.44090877,-79.94822524,5.159999847,-0.09365844727,-0.9225158691,0.3953857422,-0.02390080552,-0.2710024736,0.07433069024
1490542176.0,40.44090877,-79.94822524,5.159999847,-0.05473327637,-0.9208221436,0.382522583,-0.002428802914,-0.2444249248,0.08264960653
1490542176.0,40.44090877,-79.94822524,5.159999847,-0.1316375732,-0.965057373,0.3904876709,-0.02675358368,-0.1826153528,0.07990202324
1490542176.0,40.44090877,-79.94822524,5.159999847,-0.1277618408,-0.9691619873,0.3601226807,-0.02174257977,-0.2348889439,0.05945640292
1490542176.0,40.44091472,-79.94830135,7.400000095,-0.09266662598,-0.9815216064,0.4592895508,0.04617521856,-0.2438406273,0.01698111406
1490542177.0,40.44091472,-79.94830135,7.400000095,0.03715515137,-0.9444274902,0.4097595215,0.002947853011,-0.01823865873,-0.02780606494
1490542177.0,40.44091472,-79.94830135,7.400000095,-0.1898498535,-0.9448242188,0.3885192871,-0.05121285408,0.01076795924,-0.01105371642
1490542177.0,40.44091472,-79.94830135,7.400000095,-0.2360229492,-0.9709777832,0.4034423828,-0.006387059242,-0.06899078594,0.03724723732
1490542177.0,40.44091472,-79.94830135,7.400000095,-0.09017944336,-0.8923492432,0.3438262939,0.01239621593,-0.1808368938,0.03461843101
1490542177.0,40.4409317,-79.94839397,8.460000038,-0.1084899902,-0.9169311523,0.4925994873,0.06842406526,-0.3162216173,0.03359417925
1490542178.0,40.4409317,-79.94839397,8.460000038,0.04649353027,-0.7941589355,0.2387084961,0.02106054422,-0.1298027378,0.02822684439
1490542178.0,40.4409317,-79.94839397,8.460000038,0.03372192383,-0.9235229492,0.3712310791,0.01056476004,-0.1338968154,0.05501132074
1490542178.0,40.4409317,-79.94839397,8.460000038,-0.001815795898,-0.939453125,0.4052276611,-0.04600024888,-0.09657953693,0.02702416085
1490542178.0,40.4409317,-79.94839397,8.460000038,-0.01063537598,-0.9822998047,0.3704833984,-0.02559404334,0.01813479544,-0.01029657972
1490542178.0,40.44096573,-79.94850218,10.30000019,0.07585144043,-0.9625701904,0.3546600342,-0.07912810862,-0.1602306849,0.04862798992
1490542179.0,40.44096573,-79.94850218,10.30000019,0.04429626465,-0.9834136963,0.3479766846,-0.08748830392,-0.2227310809,0.1061770369
1490542179.0,40.44096573,-79.94850218,10.30000019,-0.06108093262,-0.9389190674,0.3871002197,-0.01729483444,-0.2910523482,0.1157905158
1490542179.0,40.44096573,-79.94850218,10.30000019,-0.1516113281,-0.8941345215,0.3695068359,0.03618756552,-0.09467191464,0.03984541728
1490542179.0,40.44096573,-79.94850218,10.30000019,-0.1745300293,-1.279174805,0.2746276855,-0.01379091339,-0.03175899495,0.02676290474
1490542179.0,40.44102252,-79.94861869,11.53999996,0.2223968506,-0.5993804932,0.6546478271,0.312932347,-0.2700871451,0.06257922561
1490542180.0,40.44102252,-79.94861869,11.53999996,0.03730773926,-0.8493347168,0.1152038574,-0.2625674435,0.004942294351,-0.04570037694
1490542180.0,40.44102252,-79.94861869,11.53999996,0.1868286133,-0.9409179688,0.1621551514,-0.08987289836,0.1147643998,-0.1062995423
1490542180.0,40.44102252,-79.94861869,11.53999996,0.1971282959,-1.064910889,0.4203948975,0.1521706278,0.1171367437,-0.1040438448
1490542180.0,40.44107951,-79.94874618,12.56999969,0.1052246094,-0.9114837646,0.1784210205,-0.1481979904,0.05147597439,-0.02678793846
1490542180.0,40.44107951,-79.94874618,12.56999969,0.07702636719,-1.013565063,0.4915618896,0.06273368895,-0.04705645857,-0.0009068063512
1490542181.0,40.44107951,-79.94874618,12.56999969,0.120880127,-0.8786468506,0.2116546631,-0.1278620924,-0.05047489214,0.03777001584
1490542181.0,40.44107951,-79.94874618,12.56999969,0.1015777588,-0.9842987061,0.4439849854,0.05320276804,-0.08414257464,0.02792244508
1490542181.0,40.44107951,-79.94874618,12.56999969,-0.0143737793,-0.9409179688,0.4532470703,0.06373157541,-0.07471604965,0.00328261236
1490542181.0,40.44107951,-79.94874618,12.56999969,-0.0101776123,-0.9419250488,0.3288879395,0.01921417463,-0.05845079329,0.03374624575
1490542181.0,40.44114678,-79.94888105,14.17000008,0.04595947266,-0.8884887695,0.3143920898,-0.03507170103,-0.1389019603,0.08863958846
1490542182.0,40.44114678,-79.94888105,14.17000008,0.04718017578,-0.8467712402,0.3284301758,-0.1126314741,0.008089351811,0.05264030842
1490542182.0,40.44114678,-79.94888105,14.17000008,0.02864074707,-0.9573669434,0.254989624,-0.0009305084849,-0.03706534342,0.03938389146
1490542182.0,40.44114678,-79.94888105,14.17000008,-0.05114746094,-0.8207550049,0.3680877686,-0.06929811472,0.05439346737,-0.02778582492
1490542182.0,40.44114678,-79.94888105,14.17000008,-0.05535888672,-0.8026733398,0.2461395264,-0.001005343312,-0.1751574365,0.09985309454
1490542182.0,40.44122297,-79.9490222,14.53999996,-0.003479003906,-0.9634246826,0.245010376,0.01923148518,-0.0637478207,0.03906591003
1490542183.0,40.44122297,-79.9490222,14.53999996,-0.0701751709,-0.9799499512,0.2253265381,0.02115934749,-0.08725953838,0.02085841029
1490542183.0,40.44122297,-79.9490222,14.53999996,0.05751037598,-0.9673614502,0.2473907471,-0.1022262374,-0.02185922623,0.03004445184
1490542183.0,40.44122297,-79.9490222,14.53999996,-0.0009613037109,-0.9192657471,0.2843933105,-0.1515461166,-0.02613280083,-0.008794556868
1490542183.0,40.44129706,-79.9491605,14.85000038,0.1035614014,-0.9437103271,0.2068939209,0.05113402451,0.04863970783,-0.03146524828
1490542183.0,40.44129706,-79.9491605,14.85000038,-0.072265625,-1.671051025,0.06996154785,0.346547299,-0.02027091695,0.01686926129
1490542184.0,40.44129706,-79.9491605,14.85000038,0.166305542,-0.9029083252,0.2554473877,0.1796587113,0.02206642016,0.06921262725
1490542184.0,40.44129706,-79.9491605,14.85000038,0.0272064209,-1.054779053,0.08863830566,-0.03699610123,-0.05911019197,0.07818321907
1490542184.0,40.44129706,-79.9491605,14.85000038,0.05792236328,-0.9127502441,0.06718444824,0.04471740418,0.05926625321,-0.0398904247
1490542184.0,40.44129706,-79.9491605,14.85000038,0.01083374023,-0.9623260498,0.106262207,-0.1118820606,0.1204180245,-0.05268584848
1490542184.0,40.44137326,-79.94929461,14.18000031,0.2358703613,-0.9019012451,0.2198791504,-0.01043319989,0.1796485913,-0.05917357521
1490542185.0,40.44137326,-79.94929461,14.18000031,0.3238830566,-1.059143066,0.1220397949,0.0842493674,0.01246892022,-0.003176884864
1490542185.0,40.44137326,-79.94929461,14.18000031,-0.02020263672,-0.9555053711,0.2509002686,0.006193447431,-0.09891646079,0.0210221947
1490542185.0,40.44137326,-79.94929461,14.18000031,-0.1750640869,-1.005233765,0.3063201904,-0.0588891496,-0.2325181979,0.08339582427
1490542185.0,40.44137326,-79.94929461,14.18000031,-0.1152954102,-1.076690674,0.1745758057,-0.009583917815,-0.115699702,0.06170810562
1490542185.0,40.4414471,-79.9494195,13.75,0.2196044922,-1.01133728,0.0785369873,-0.06769382648,0.1322829398,0.01182976156
1490542186.0,40.4414471,-79.9494195,13.75,0.07281494141,-0.8877258301,0.1585998535,-0.08303683016,0.03753698925,-0.000989364345
1490542186.0,40.4414471,-79.9494195,13.75,-0.03910827637,-1.006347656,0.1853179932,0.04166488894,-0.0977726331,0.06322956955
1490542186.0,40.4414471,-79.9494195,13.75,0.03010559082,-0.9605255127,0.2113342285,0.0362616014,-0.1636395311,0.08660812918
1490542186.0,40.4414471,-79.9494195,13.75,0.1326904297,-0.9948730469,0.3134613037,0.0298156863,0.01473740084,-0.01314269998
1490542186.0,40.44151801,-79.9495485,12.47000027,0.09761047363,-1.047332764,0.270980835,-0.0159981413,0.02872059446,-0.01572649887
1490542187.0,40.44151801,-79.9495485,12.47000027,-0.01054382324,-0.9851531982,0.001083374023,0.005313539007,-0.01914360086,0.007353254086
1490542187.0,40.44151801,-79.9495485,12.47000027,0.04666137695,-1.081802368,0.2009277344,-0.05341795146,0.05956878831,-0.04717150712
1490542187.0,40.44151801,-79.9495485,12.47000027,-0.03868103027,-0.9100341797,0.1701507568,-0.09059168554,-0.04001639222,0.02558898333
1490542187.0,40.44151801,-79.9495485,12.47000027,0.07606506348,-1.019393921,0.1730957031,0.02348774923,0.01586977694,-0.003461843101
1490542187.0,40.44158247,-79.94967707,11.65999985,0.03193664551,-0.9041137695,0.2372894287,0.02997973702,0.03290415422,0.001826662192
1490542188.0,40.44158247,-79.94967707,11.65999985,0.1635437012,-1.005249023,0.3016052246,-0.07269710722,0.0871804425,-0.07458928318
1490542188.0,40.44158247,-79.94967707,11.65999985,0.1024932861,-0.949005127,0.2623901367,-0.06445275944,0.07283878739,0.04897633139
1490542188.0,40.44158247,-79.94967707,11.65999985,-0.05726623535,-0.8505706787,0.3537750244,-0.1875920019,-0.06302956615,0.04063451191
1490542188.0,40.441646,-79.94977782,11.23999977,0.3530883789,-1.094818115,0.2525177002,0.00673220492,0.1839125786,-0.04551901567
1490542188.0,40.441646,-79.94977782,11.23999977,-0.01631164551,-0.940246582,0.2955780029,0.02287682008,-0.02415620267,0.08496602405
1490542189.0,40.441646,-79.94977782,11.23999977,0.004272460938,-0.8457641602,0.304107666,-0.02102432523,0.01727299651,0.03549887207
1490542189.0,40.441646,-79.94977782,11.23999977,0.168182373,-1.105865479,0.1961517334,-0.231578901,-0.07475280127,0.005976133486
1490542189.0,40.441646,-79.94977782,11.23999977,0.08265686035,-0.9446258545,0.05458068848,0.1020669804,0.07059187838,-0.07898536319
1490542189.0,40.441646,-79.94977782,11.23999977,0.2355804443,-1.217300415,0.1652984619,0.0524051513,0.2791999497,-0.1205304099
1490542189.0,40.44170019,-79.94988562,11.31999969,-0.1824493408,-1.061584473,0.2814331055,0.1224518806,-0.09928237912,0.02807238105
1490542190.0,40.44170019,-79.94988562,11.31999969,0.0732421875,-0.7490081787,0.3217773438,-0.256585451,0.01281513117,0.04701917431
1490542190.0,40.44170019,-79.94988562,11.31999969,-0.06767272949,-0.9711151123,0.1843566895,0.003165433272,0.05411969441,-0.03297472799
1490542190.0,40.44170019,-79.94988562,11.31999969,0.09071350098,-0.9360656738,0.1979827881,0.006049370416,-0.2158204442,0.06021274067
1490542190.0,40.44170019,-79.94988562,11.31999969,-0.2449035645,-1.043045044,0.09423828125,0.03841316925,-0.06594386333,0.03881663815
1490542190.0,40.4417561,-79.94998964,11.65999985,-0.0739440918,-1.081283569,0.2063140869,-0.04774302149,0.05554528454,0.006067479912
1490542191.0,40.4417561,-79.94998964,11.65999985,0.1606140137,-0.9548492432,0.3477935791,0.1363226888,-0.1184355674,0.03958229697
1490542191.0,40.4417561,-79.94998964,11.65999985,0.04025268555,-0.8057556152,0.3011474609,0.01580932318,-0.244407348,0.09947998567
1490542191.0,40.4417561,-79.94998964,11.65999985,-0.09898376465,-0.8955230713,0.1420440674,0.06085456249,0.1644355499,-0.07291308959
1490542191.0,40.4417561,-79.94998964,11.65999985,-0.06871032715,-0.8726501465,0.2192687988,0.1142472139,0.1037871161,-0.02894296841
1490542191.0,40.44181205,-79.95010279,11.61999989,-0.1401519775,-0.920715332,0.01197814941,-0.002569151504,0.06978147846,-0.1011159655
1490542192.0,40.44181205,-79.95010279,11.61999989,-0.0572052002,-1.128585815,0.3078460693,0.1491929474,0.298878047,-0.1654403606
1490542192.0,40.44181205,-79.95010279,11.61999989,0.1976776123,-1.008453369,0.2547454834,-0.01038952404,0.01190832481,0.03428473693
1490542192.0,40.44181205,-79.95010279,11.61999989,-0.04095458984,-0.9765319824,0.1777648926,0.05034279935,0.06157894231,0.002699646397
1490542192.0,40.44181205,-79.95010279,11.61999989,-0.2160491943,-0.9695281982,0.1734161377,-0.02532799355,0.2763495684,-0.1046174897
1490542192.0,40.4418799,-79.9502043,11.52000046,-0.08610534668,-0.9395599365,0.1630554199,-0.08107035201,0.006619553206,-0.009616674696
1490542193.0,40.4418799,-79.9502043,11.52000046,-0.1770782471,-1.01008606,0.1566619873,-0.07849560787,0.2394669178,-0.06456807431
1490542193.0,40.4418799,-79.9502043,11.52000046,-0.09811401367,-0.9438323975,0.2838745117,-0.02549364217,0.1307606769,-0.05376203187
1490542193.0,40.4418799,-79.9502043,11.52000046,-0.06097412109,-0.9266052246,0.4215240479,-0.1602637081,0.1001231391,-0.102237689
1490542193.0,40.4418799,-79.9502043,11.52000046,-0.1518859863,-1.002639771,0.3094482422,0.1256708434,0.009028915044,-0.02504037215
1490542193.0,40.44194151,-79.950311,11.02000046,0.5613250732,-0.9080200195,0.491027832,0.1228827801,-0.6192816262,0.361725453
1490542194.0,40.44194151,-79.950311,11.02000046,0.7992858887,-0.8246154785,0.08280944824,-0.1429648789,-0.6664161154,0.3308769928
1490542194.0,40.44194151,-79.950311,11.02000046,0.5899658203,-0.9416809082,0.1139678955,-0.03819159424,-0.3458948245,0.2076418765
1490542194.0,40.44194151,-79.950311,11.02000046,0.2587738037,-0.8187103271,0.3121490479,0.02648833283,-0.01188835111,-0.01849352324
1490542194.0,40.44194151,-79.950311,11.02000046,0.2563171387,-1.235733032,0.1141204834,-0.2089998223,0.09382875784,0.1052518547
1490542194.0,40.44199259,-79.95041762,10.68000031,0.297744751,-0.8587036133,0.1652526855,0.1957218338,-0.03315449136,0.1083384584
1490542195.0,40.44199259,-79.95041762,10.68000031,0.09268188477,-0.8965606689,0.3023681641,-0.07901066322,0.1456623948,-0.09250356888
1490542195.0,40.44199259,-79.95041762,10.68000031,0.5643920898,-1.01701355,0.1859588623,-0.002530801984,-0.2551151198,0.07302867078
1490542195.0,40.44199259,-79.95041762,10.68000031,0.429107666,-1.054992676,0.1857452393,-0.05840232376,-0.163155901,0.119806829
1490542195.0,40.44199259,-79.95041762,10.68000031,0.1800079346,-1.105834961,0.3072662354,-0.1253123819,-0.1032805829,0.1271947042
1490542195.0,40.44204326,-79.95053102,10.93000031,0.001953125,-1.060623169,0.1773223877,-0.001039964406,0.06479444301,-0.02969744195
1490542196.0,40.44204326,-79.95053102,10.93000031,0.02510070801,-0.8639984131,0.3336791992,-0.04983972822,0.0226605714,0.02841326567
1490542196.0,40.44204326,-79.95053102,10.93000031,0.04336547852,-0.979385376,0.2978057861,0.07484494664,-0.01921896832,0.0416592963
1490542196.0,40.44204326,-79.95053102,10.93000031,-0.1047058105,-1.356002808,0.2871704102,-0.2099242056,0.1186624687,-0.04504310878
1490542196.0,40.44204326,-79.95053102,10.93000031,0.007919311523,-1.288146973,0.2410736084,-0.2071459959,0.1106149285,0.05514554406
1490542196.0,40.44208949,-79.95065214,11.25,-0.3634643555,-0.9047393799,0.1293792725,-0.07170561235,0.5819425098,-0.3422010201
1490542197.0,40.44208949,-79.95065214,11.25,-0.2443847656,-0.8395996094,0.2875518799,0.07604629861,0.4289697378,-0.1706087573
1490542197.0,40.44208949,-79.95065214,11.25,-0.07339477539,-0.8967437744,0.14402771,0.0136969038,0.1994638414,-0.1276855248
1490542197.0,40.44208949,-79.95065214,11.25,-0.3521728516,-1.102676392,0.7773284912,0.182529599,0.1067722534,-0.02340705545
1490542197.0,40.4421314,-79.9507679,11.13000011,-0.4370269775,-0.8048095703,0.4420318604,0.1737715274,0.2099471087,-0.2693992506
1490542197.0,40.4421314,-79.9507679,11.13000011,-0.1742553711,-0.8689727783,0.2197418213,0.06976896161,0.1012746899,-0.1414218434
1490542198.0,40.4421314,-79.9507679,11.13000011,-0.07838439941,-0.8653106689,0.2207794189,-0.006281598063,0.05531891585,-0.01152349804
1490542198.0,40.4421314,-79.9507679,11.13000011,0.1495666504,-0.9553375244,0.1254730225,-0.07462257269,0.1011372708,-0.05107170654
1490542198.0,40.4421314,-79.9507679,11.13000011,0.01959228516,-0.9113769531,0.1467895508,0.1150664023,-0.03018240358,0.003797667714
1490542198.0,40.4421314,-79.9507679,11.13000011,-0.07495117188,-0.9728393555,0.2005310059,-0.03537823087,0.1114769938,-0.0867391567
1490542198.0,40.44216991,-79.95088139,10.67000008,0.1560211182,-1.059570313,0.07527160645,0.2026577705,0.06838571574,-0.02268507248
1490542199.0,40.44216991,-79.95088139,10.67000008,0.07415771484,-1.030975342,0.1753082275,-4.21e-05,-0.1922229727,0.0934031847
1490542199.0,40.44216991,-79.95088139,10.67000008,0.04873657227,-0.9785308838,0.1371002197,-0.03712393296,0.03955113798,0.008028365422
1490542199.0,40.44216991,-79.95088139,10.67000008,0.2009429932,-1.040374756,0.1098327637,-0.1227272515,-0.1185889654,0.04394668536
1490542199.0,40.44216991,-79.95088139,10.67000008,0.05416870117,-1.130661011,0.2395019531,-0.07377781799,-0.02962873239,-0.01619122048
1490542199.0,40.44220537,-79.95099144,9.930000305,-0.2706298828,-0.9987792969,0.02209472656,0.1527772959,0.3108188624,-0.1142709161
1490542200.0,40.44220537,-79.95099144,9.930000305,-0.2186584473,-0.8081207275,0.1725158691,0.1815452947,0.09940062347,-0.007415305739
1490542200.0,40.44220537,-79.95099144,9.930000305,0.09297180176,-1.162475586,0.1159362793,-0.1767955469,0.04533658913,0.004487959069
1490542200.0,40.44220537,-79.95099144,9.930000305,0.1445159912,-0.991973877,0.1223144531,0.05921725105,-0.04651530423,0.110045811
1490542200.0,40.44220537,-79.95099144,9.930000305,0.1488342285,-1.060928345,0.1346435547,-0.1224058079,-0.04934304868,0.05583210699
1490542200.0,40.44223651,-79.95108993,9.140000343,0.1417388916,-1.099639893,0.3388366699,-0.1278847292,-0.05898555604,0.03881717078
1490542201.0,40.44223651,-79.95108993,9.140000343,0.1569519043,-0.9753875732,0.1349182129,-0.03442135709,-0.07124035811,-0.008256598328
1490542201.0,40.44223651,-79.95108993,9.140000343,0.1217651367,-0.9456329346,0.2187957764,0.08531995816,-0.1521170983,0.08281072778
1490542201.0,40.44223651,-79.95108993,9.140000343,-0.1713256836,-1.081604004,-0.004180908203,-0.2921905832,-0.1527003306,-0.08834158073
1490542201.0,40.44223651,-79.95108993,9.140000343,0.446395874,-1.02696228,0.1918640137,-0.004196609246,-0.2632742464,0.1466134096
1490542201.0,40.44226907,-79.9511885,8.529999733,0.3087005615,-0.9372711182,-0.2375030518,-0.04936302239,-0.3483406716,0.133129825
1490542202.0,40.44226907,-79.9511885,8.529999733,0.5766448975,-0.9282989502,-0.325881958,0.03276726774,-0.1171157047,0.01850923589
1490542202.0,40.44226907,-79.9511885,8.529999733,0.05120849609,-1.082092285,-0.3937530518,0.1326584455,-0.1211839496,0.1302674595
1490542202.0,40.44226907,-79.9511885,8.529999733,0.5144958496,-1.045166016,-0.6704406738,0.03697160015,-0.39431349,0.1532532028
1490542202.0,40.44226907,-79.9511885,8.529999733,0.1656951904,-1.015289307,-0.3772583008,-0.08328237361,-0.1431489033,0.05618497583
1490542202.0,40.44229694,-79.95126804,6.869999886,0.1771697998,-1.103469849,-0.2333526611,0.008680307257,-0.1082308667,0.07855526267
1490542203.0,40.44229694,-79.95126804,6.869999886,-0.006256103516,-1.027084351,-0.05102539063,-0.01934893058,0.01588229379,-0.03170946015
1490542203.0,40.44229694,-79.95126804,6.869999886,0.09480285645,-1.007980347,0.1066131592,-0.0009904296094,0.001118793974,0.01067927597
1490542203.0,40.44229694,-79.95126804,6.869999886,0.08920288086,-0.8912506104,0.2310791016,-0.001788578988,0.01617683941,0.04271630494
1490542203.0,40.44229694,-79.95126804,6.869999886,0.05541992188,-0.9386901855,0.2195587158,-0.01214108509,-0.007683486061,-0.0574491784
1490542203.0,40.44231362,-79.95132311,3.039999962,0.1733703613,-0.952545166,0.2277374268,-0.04587934136,0.03623576874,-0.02386005915
1490542204.0,40.44231362,-79.95132311,3.039999962,0.0926361084,-0.917388916,0.1912078857,0.03114220684,0.02765905845,0.01886237105
1490542204.0,40.44231362,-79.95132311,3.039999962,0.02449035645,-0.9600372314,0.3202667236,0.00545362128,0.0945720461,-0.03077815272
1490542204.0,40.44231362,-79.95132311,3.039999962,-0.03405761719,-1.009613037,0.3673706055,-0.03047188919,0.1289033883,-0.0003824299325
1490542204.0,40.44231362,-79.95132311,3.039999962,0.02592468262,-0.9369812012,0.250793457,-0.02676956265,0.09132858221,-0.06450043002
1490542204.0,40.44232745,-79.95135211,2.869999886,0.07957458496,-0.9208679199,0.2254180908,0.003365702986,0.1031053469,-0.02859915431
1490542205.0,40.44232745,-79.95135211,2.869999886,-0.004241943359,-0.9574890137,0.262878418,-0.03622085504,0.05854586814,-0.0260646239
1490542205.0,40.44232745,-79.95135211,2.869999886,0.08766174316,-0.9563446045,0.231048584,-0.04271630494,0.04257089634,-0.03241706205
1490542205.0,40.44232745,-79.95135211,2.869999886,0.04661560059,-0.9616546631,0.2260894775,0.008782306327,0.07447769673,-0.001007207524
1490542205.0,40.44232745,-79.95135211,2.869999886,0.01110839844,-0.9599151611,0.2077789307,-0.02555569382,0.0372749342,-0.01451875531
1490542205.0,40.44233625,-79.95139101,3.220000029,0.01858520508,-0.98777771,0.2695770264,-0.01176211727,0.03293318267,-0.02216921818
1490542206.0,40.44233625,-79.95139101,3.220000029,0.05641174316,-0.979385376,0.2474822998,-0.05209542566,0.04063238138,0.0007566040657
1490542206.0,40.44233625,-79.95139101,3.220000029,0.01493835449,-0.9803619385,0.1989135742,-0.009232114235,0.0236491368,0.041761828
1490542206.0,40.44233625,-79.95139101,3.220000029,-0.02934265137,-0.9712524414,0.2128753662,-0.01797846789,-0.02213353182,0.03323678304
1490542206.0,40.44233625,-79.95139101,3.220000029,0.04708862305,-0.951171875,0.22605896,-0.01427587502,-0.05758446699,-0.03194275306
1490542206.0,40.44234443,-79.95143367,3.039999962,0.08929443359,-0.9468078613,0.2152099609,-0.02564650761,-0.05623104852,0.02045920244
1490542207.0,40.44234443,-79.95143367,3.039999962,0.01815795898,-0.9630126953,0.2220306396,-0.04491234757,-0.0371047582,-0.0005797701693
1490542207.0,40.44234443,-79.95143367,3.039999962,-0.006530761719,-0.9863739014,0.2345275879,0.01171231616,-0.05739058886,0.02744573925
1490542207.0,40.44234443,-79.95143367,3.039999962,0.05052185059,-0.9770965576,0.1914825439,-0.02057984364,-0.03732207215,-0.02861673118
1490542207.0,40.44234443,-79.95143367,3.039999962,0.03468322754,-0.9767303467,0.1769561768,-0.01626072898,-0.02986548741,-0.02438896295
1490542207.0,40.44235264,-79.95147256,2.940000057,-0.004791259766,-0.9844360352,0.2467803955,-0.01396987781,0.003155845892,-0.01794384679
1490542208.0,40.44235264,-79.95147256,2.940000057,0.006240844727,-0.9977416992,0.2000427246,-0.04593313722,-0.02007970199,-0.002660497929
1490542208.0,40.44235264,-79.95147256,2.940000057,-0.01586914063,-0.9870300293,0.1677246094,-0.007635549161,-0.004343083106,-0.02337376594
1490542208.0,40.44235264,-79.95147256,2.940000057,0.00749206543,-0.9826660156,0.11277771,-0.0002335592276,0.0008974852874,-0.03518648327
1490542208.0,40.44235264,-79.95147256,2.940000057,0.05696105957,-1.013153076,0.0721282959,-0.01600266867,-0.0360549401,0.0171835143
1490542208.0,40.4423575,-79.95150299,2.50999999,0.007583618164,-0.9899597168,0.1222686768,-0.0086198535,-0.04038444109,0.007481884766
1490542209.0,40.4423575,-79.95150299,2.50999999,0.04229736328,-0.9986572266,0.08987426758,-0.02035134442,0.007436078396,-0.01785276668
1490542209.0,40.4423575,-79.95150299,2.50999999,0.02673339844,-1.021789551,0.1367797852,-0.02669179834,-0.005244296819,-0.002871420287
1490542209.0,40.4423575,-79.95150299,2.50999999,0.005630493164,-0.9789428711,0.1416625977,-0.005337507457,0.0286833102,-0.01586232008
1490542209.0,40.4423575,-79.95150299,2.50999999,0.009017944336,-0.9817047119,0.1666107178,-0.001030909658,-0.006342584452,0.008529838655
1490542209.0,40.44236308,-79.95152621,1.220000029,0.03634643555,-0.9920501709,0.1741943359,-0.005262938946,0.02130289188,-0.000950482193
1490542210.0,40.44236308,-79.95152621,1.220000029,0.02093505859,-0.9809875488,0.1645050049,-0.01065024752,-0.00314093219,0.003327619782
1490542210.0,40.44236308,-79.95152621,1.220000029,0.03895568848,-0.9773406982,0.176361084,-0.009623598915,-0.002110555164,-0.003081543697
1490542210.0,40.44236308,-79.95152621,1.220000029,0.02514648438,-0.9685058594,0.239364624,-0.01493447476,0.00960202731,-0.006186256896
1490542210.0,40.44236308,-79.95152621,1.220000029,0.03991699219,-0.9538879395,0.234085083,-0.01921124516,-0.004195810297,-0.0008314388923
1490542210.0,40.44236572,-79.95153752,0.2800000012,0.02081298828,-0.9543762207,0.2563323975,-0.0106814065,0.006393717145,-0.006247775917
1490542211.0,40.44236572,-79.95153752,0.2800000012,0.01991271973,-0.9542541504,0.2460479736,-0.006423810865,0.01062148538,-0.009491506125
1490542211.0,40.44236572,-79.95153752,0.2800000012,0.03302001953,-0.9724578857,0.216293335,-0.007483482663,0.004258660899,-0.005226986271
1490542211.0,40.44236572,-79.95153752,0.2800000012,0.02914428711,-0.992401123,0.1713867188,-0.01813346386,0.003241599679,-0.0029609025
1490542211.0,40.44236572,-79.95153752,0.2800000012,0.03994750977,-0.9683227539,0.1663360596,-0.00745152473,0.001095624472,0.001163801396
1490542211.0,40.44236651,-79.95154138,0.3199999928,0.02223205566,-0.9461364746,0.264251709,-0.007461911058,0.004273840917,-0.00202799717
1490542212.0,40.44236651,-79.95154138,0.3199999928,0.03179931641,-0.9505310059,0.2846984863,-0.008531436552,0.005336974825,-0.003078347904
1490542212.0,40.44236651,-79.95154138,0.3199999928,0.03193664551,-0.9491729736,0.2926483154,-0.01491663158,0.008552741841,-0.00298966464
1490542212.0,40.44236651,-79.95154138,0.3199999928,0.03530883789,-0.9482116699,0.2755737305,-0.01492062632,0.005364405384,-0.001930525474
1490542212.0,40.44236651,-79.95154138,0.3199999928,0.01849365234,-0.9399261475,0.2882385254,-0.01600879394,0.001105211852,-0.002992860433
1490542212.0,40.44236957,-79.95154113,0.2899999917,0.03804016113,-0.9518890381,0.2906494141,-0.004278900923,-0.002119077279,-0.001016794904
1490542213.0,40.44236957,-79.95154113,0.2899999917,0.02505493164,-0.9654846191,0.2880401611,-0.0213313877,0.005376655925,-0.003981692146
1490542213.0,40.44236957,-79.95154113,0.2899999917,0.03190612793,-0.966293335,0.2796020508,-0.01597923286,0.007497064785,-0.001912149663
1490542213.0,40.44236957,-79.95154113,0.2899999917,0.02548217773,-0.963180542,0.2460174561,-0.007473096335,0.001080444454,-0.002035187705
1490542213.0,40.44236957,-79.95154113,0.2899999917,0.03826904297,-0.9668426514,0.2244415283,-0.01063852961,0.004300206212,0.001211738296
1490542213.0,40.44236785,-79.95154507,0.6000000238,0.02325439453,-0.9718933105,0.2315368652,-0.01279116272,0.01278796692,-0.006206230604
1490542214.0,40.44236785,-79.95154507,0.6000000238,0.01452636719,-0.9618377686,0.2076263428,-0.01920645147,0.005364139068,-0.005075186089
1490542214.0,40.44236785,-79.95154507,0.6000000238,0.03497314453,-0.9751281738,0.1843414307,-0.01067847702,0.001086569725,-0.003060771041
1490542214.0,40.44236785,-79.95154507,0.6000000238,0.02731323242,-0.9856719971,0.1738586426,-0.01495311689,0.004279699872,-0.006198241121
1490542214.0,40.44236785,-79.95154507,0.6000000238,0.03517150879,-0.9800262451,0.1743011475,-0.01386867769,0.007474427915,-0.005138303007
1490542214.0,40.44236873,-79.95154766,0.2800000012,0.02944946289,-0.9745788574,0.1775360107,-0.01600133709,0.003234142828,-0.002988066743
1490542215.0,40.44236873,-79.95154766,0.2800000012,0.03820800781,-0.9758605957,0.2344512939,-0.01492435475,0.004299939896,-0.001932922319
1490542215.0,40.44236873,-79.95154766,0.2800000012,0.03437805176,-0.9557189941,0.2595672607,-0.01492808317,0.003235474408,-0.001935319164
1490542215.0,40.44236873,-79.95154766,0.2800000012,0.02703857422,-0.9674072266,0.2389678955,-0.01067421597,0.006398777151,-0.005181446217
1490542215.0,40.44236873,-79.95154766,0.2800000012,0.02687072754,-0.9702606201,0.2313232422,-0.01280261431,0.00747069949,-0.005151885129
1490542215.0,40.44236873,-79.95154766,0.0,0.02870178223,-0.9552154541,0.250213623,-0.01493447476,0.00960202731,-0.006186256896
1490542216.0,40.44236873,-79.95154766,0.0,0.02897644043,-0.9727935791,0.2353515625,-0.01491290316,0.009617207328,-0.002987267795
1490542216.0,40.44236873,-79.95154766,0.0,0.0287322998,-0.9622039795,0.239440918,-0.0181292028,0.008553807105,-0.005081577676
1490542216.0,40.44236873,-79.95154766,0.0,0.03196716309,-0.9615783691,0.2489776611,-0.006399043467,0.007453388943,-0.004167048158
1490542216.0,40.44236873,-79.95154766,0.0,0.02238464355,-0.965927124,0.2409362793,-0.01493820319,0.008537561823,-0.006188653741
1490542216.0,40.44236873,-79.95154766,0.0,0.03465270996,-0.9584503174,0.244934082,-0.01386148716,0.007479487921,-0.004071973307
1490542217.0,40.44236873,-79.95154766,0.0,0.02250671387,-0.9684295654,0.2389221191,-0.01493447476,0.00960202731,-0.006186256896
1490542217.0,40.44236873,-79.95154766,0.0,0.03434753418,-0.9645233154,0.2429199219,-0.0117328225,0.008531436552,-0.005163070405
1490542217.0,40.44236873,-79.95154766,0.0,0.02412414551,-0.9617919922,0.2462005615,-0.01280261431,0.00747069949,-0.005151885129
1490542217.0,40.44236873,-79.95154766,0.0,0.03468322754,-0.9645080566,0.2375793457,-0.01493474108,0.007478156341,-0.005124720886
1490542217.0,40.44236873,-79.95154766,0.0,0.02435302734,-0.9624938965,0.2423095703,-0.01279169535,0.008540224984,-0.004083158583
1490542218.0,40.44236873,-79.95154766,0.0,0.03131103516,-0.9644622803,0.2478790283,-0.01280234799,0.009594570459,-0.006213421139
1490542218.0,40.44236873,-79.95154766,0.0,0.02911376953,-0.9654998779,0.2443695068,-0.01492755054,0.007483216347,-0.004058391185
1490542218.0,40.44236873,-79.95154766,0.0,0.0295715332,-0.9621276855,0.2392730713,-0.01281326695,0.008525044965,-0.007282147685
1490542218.0,40.44236873,-79.95154766,0.0,0.02911376953,-0.9636383057,0.2413330078,-0.01492755054,0.007483216347,-0.004058391185
1490542218.0,40.44236873,-79.95154766,0.0,0.0287322998,-0.9653930664,0.2361297607,-0.0117328225,0.008531436552,-0.005163070405
1490542219.0,40.44236873,-79.95154766,0.0,0.03042602539,-0.963104248,0.2409820557,-0.01279888588,0.008535164978,-0.005149488284
1490542219.0,40.44236873,-79.95154766,0.0,0.02613830566,-0.9656219482,0.2409973145,-0.01707032996,0.008545018674,-0.006161489498
1490542219.0,40.44236873,-79.95154766,0.0,0.03161621094,-0.9640960693,0.2410430908,-0.01493101265,0.008542621829,-0.005122324041
1490542219.0,40.44236873,-79.95154766,0.0,0.02935791016,-0.9618682861,0.2379455566,-0.01173655092,0.007466971064,-0.00516546725
1490542219.0,40.44236873,-79.95154766,0.0,0.0333404541,-0.962890625,0.2422332764,-0.01066303069,0.009592173614,-0.005174255682
1490542220.0,40.44236873,-79.95154766,0.0,0.02456665039,-0.9635314941,0.2425689697,-0.0117328225,0.008531436552,-0.005163070405
1490542220.0,40.44236873,-79.95154766,0.0,0.03100585938,-0.9648132324,0.2426147461,-0.01172936039,0.00747203107,-0.00409913755
1490542220.0,40.44236873,-79.95154766,0.0,0.02806091309,-0.9633026123,0.2415618896,-0.01280607642,0.008530104972,-0.006215817984
1490542220.0,40.44236873,-79.95154766,0.0,0.03103637695,-0.9629821777,0.2440032959,-0.01387586823,0.007469367909,-0.006204632708
1490542220.0,40.44236873,-79.95154766,0.0,0.02911376953,-0.9627990723,0.2405548096,-0.01493474108,0.007478156341,-0.005124720886
1490542221.0,40.44236873,-79.95154766,0.0,0.03120422363,-0.9628448486,0.240020752,-0.01279169535,0.008540224984,-0.004083158583
1490542221.0,40.44236873,-79.95154766,0.0,0.03048706055,-0.9637756348,0.2424468994,-0.01279888588,0.008535164978,-0.005149488284
1490542221.0,40.44236873,-79.95154766,0.0,0.02937316895,-0.9641723633,0.2428131104,-0.0117328225,0.008531436552,-0.005163070405
1490542221.0,40.44236873,-79.95154766,0.0,0.02975463867,-0.9641571045,0.2405548096,-0.01386494927,0.008538893403,-0.005135906162
1490542221.0,40.44236873,-79.95154766,0.0,0.03173828125,-0.9644012451,0.2433013916,-0.01279542377,0.007475759496,-0.004085555428
1490542222.0,40.44236873,-79.95154766,0.0,0.02815246582,-0.963760376,0.2449798584,-0.01386494927,0.008538893403,-0.005135906162
1490542222.0,40.44236873,-79.95154766,0.0,0.0304107666,-0.9654998779,0.2423400879,-0.01174374146,0.007461911058,-0.006231796951
1490542222.0,40.44236873,-79.95154766,0.0,0.02696228027,-0.9633483887,0.2421264648,-0.01280261431,0.00747069949,-0.005151885129
1490542222.0,40.44236873,-79.95154766,0.0,0.03080749512,-0.9628448486,0.2398834229,-0.01279888588,0.008535164978,-0.005149488284
1490542222.0,40.44236873,-79.95154766,0.0,0.02870178223,-0.9632110596,0.2384185791,-0.01172936039,0.00747203107,-0.00409913755
1490542223.0,40.44236873,-79.95154766,0.0,0.03022766113,-0.9647216797,0.243057251,-0.01492755054,0.007483216347,-0.004058391185
1490542223.0,40.44236873,-79.95154766,0.0,0.02754211426,-0.9632568359,0.2399139404,-0.01386494927,0.008538893403,-0.005135906162
1490542223.0,40.44236873,-79.95154766,0.0,0.02908325195,-0.9607543945,0.2416381836,-0.01385403031,0.009608418897,-0.004067179617
1490542223.0,40.44236873,-79.95154766,0.0,0.02635192871,-0.9661407471,0.2381896973,-0.01386494927,0.008538893403,-0.005135906162
1490542223.0,40.44236873,-79.95154766,0.0,0.02896118164,-0.9705352783,0.2615356445,-0.01066276437,0.01171604458,-0.006235791692
1490542224.0,40.44236873,-79.95154766,0.0,0.03405761719,-0.946105957,0.3123931885,-0.008534898661,0.006396380306,-0.00414228076
1490542224.0,40.44236873,-79.95154766,0.0,0.02183532715,-0.9232788086,0.4063110352,0.007488542669,0.007425159435,-7.83e-05
1490542224.0,40.44236873,-79.95154766,0.0,0.01029968262,-0.9084777832,0.4596405029,0.002147040471,0.0042504051,-1.76e-05
1490542224.0,40.44236873,-79.95154766,0.0,0.0161895752,-0.9083709717,0.471572876,-0.006425142446,2.13e-06,-0.004183826073
1490542224.0,40.44239853,-79.9515449,0.3600000143,0.04577636719,-0.90234375,0.4801940918,0.001091363415,0.02974564516,-0.01167609717
1490542225.0,40.44239853,-79.9515449,0.3600000143,0.01739501953,-0.896270752,0.4731292725,0.005207012563,-0.008600146108,-0.01394937147
1490542225.0,40.44239853,-79.9515449,0.3600000143,-0.0202331543,-0.9294128418,0.4612731934,-0.003417368311,0.0009187905761,-0.0330130775
1490542225.0,40.44239853,-79.9515449,0.3600000143,0.07202148438,-0.8668365479,0.5557250977,0.006415022434,0.005299956885,-6.95e-05
